accx,accy,accz,gx,gy,gz,g,ax,ay,az,a
-10.18,-0.04,0.86,-2.04,0,7.53,7.8,-8.14,-0.04,-6.67,10.53
-10.41,0,0.47,-3.71,0,6.12,7.16,-6.7,0,-5.65,8.77
-9.94,-0.19,-0.98,-4.96,-0.04,4.7,6.83,-4.99,-0.16,-5.68,7.56
-9.91,-0.27,-0.47,-5.95,-0.09,3.67,6.99,-3.96,-0.19,-4.13,5.73
-10.37,0.23,-0.62,-6.83,-0.02,2.81,7.39,-3.54,0.26,-3.43,4.94
-10.26,0.08,-0.58,-7.52,0,2.13,7.81,-2.74,0.08,-2.71,3.86
-9.79,-0.04,-0.43,-7.97,-0.01,1.62,8.13,-1.82,-0.03,-2.05,2.74
-10.06,-0.12,-0.04,-8.39,-0.03,1.29,8.49,-1.67,-0.09,-1.33,2.14
-10.18,0.19,-1.05,-8.75,0.01,0.82,8.79,-1.43,0.18,-1.87,2.36
-10.02,-0.12,-0.51,-9,-0.01,0.55,9.02,-1.02,-0.1,-1.06,1.48
-9.98,0.08,-0.7,-9.2,0.01,0.3,9.2,-0.78,0.07,-1,1.28
-10.3,0,-0.51,-9.42,0,0.14,9.42,-0.88,0,-0.65,1.09
-10.18,-0.31,-0.08,-9.57,-0.06,0.1,9.57,-0.61,-0.25,-0.17,0.68
-10.1,0.04,0,-9.68,-0.04,0.08,9.68,-0.42,0.08,-0.08,0.44
-10.18,-0.19,-0.23,-9.78,-0.07,0.02,9.78,-0.4,-0.12,-0.25,0.49
-10.02,0.16,-0.74,-9.83,-0.03,-0.14,9.83,-0.2,0.18,-0.6,0.66
-10.3,-0.16,-0.35,-9.92,-0.05,-0.18,9.92,-0.38,-0.1,-0.17,0.43
-9.91,0.08,-0.62,-9.92,-0.03,-0.27,9.92,0.01,0.1,-0.36,0.37
-10.02,-0.04,-0.47,-9.94,-0.03,-0.31,9.94,-0.08,-0.01,-0.16,0.18
-10.02,-0.04,-0.7,-9.96,-0.03,-0.39,9.96,-0.07,-0.01,-0.32,0.32
-10.02,-0.04,-0.62,-9.97,-0.03,-0.43,9.98,-0.05,-0.01,-0.19,0.2
-10.22,0.08,-0.19,-10.02,-0.01,-0.39,10.03,-0.2,0.09,0.19,0.29
-9.94,-0.04,-0.55,-10,-0.02,-0.42,10.01,0.06,-0.02,-0.13,0.14
-10.18,-0.27,-0.58,-10.04,-0.07,-0.45,10.05,-0.14,-0.21,-0.13,0.28
-10.22,-0.12,-0.47,-10.07,-0.08,-0.45,10.09,-0.14,-0.04,-0.01,0.15
-10.06,0.04,-0.31,-10.07,-0.05,-0.43,10.08,0.01,0.09,0.11,0.15
-9.98,-0.08,-0.55,-10.05,-0.06,-0.45,10.06,0.07,-0.02,-0.1,0.12
-10.18,0,0.12,-10.08,-0.05,-0.34,10.09,-0.1,0.05,0.45,0.47
-10.18,-0.04,-0.16,-10.1,-0.05,-0.3,10.1,-0.08,0.01,0.14,0.17
-9.91,-0.31,0,-10.06,-0.1,-0.24,10.06,0.15,-0.21,0.24,0.36
-10.1,0.08,-0.62,-10.07,-0.06,-0.32,10.07,-0.03,0.14,-0.31,0.34
-9.87,-0.04,-0.12,-10.03,-0.06,-0.28,10.03,0.16,0.02,0.16,0.23
-10.14,-0.19,-0.43,-10.05,-0.09,-0.31,10.06,-0.09,-0.11,-0.12,0.19
-10.14,-0.31,-0.39,-10.07,-0.13,-0.32,10.07,-0.07,-0.18,-0.07,0.21
-10.14,0.04,-0.12,-10.08,-0.1,-0.28,10.09,-0.06,0.14,0.17,0.22
-10.34,0.16,-0.31,-10.13,-0.05,-0.29,10.14,-0.2,0.2,-0.02,0.29
-9.91,-0.16,-0.08,-10.09,-0.07,-0.25,10.09,0.18,-0.09,0.17,0.26
-10.41,0,-0.9,-10.15,-0.05,-0.38,10.16,-0.26,0.05,-0.52,0.58
-10.02,-0.39,-0.23,-10.13,-0.12,-0.35,10.13,0.1,-0.27,0.11,0.31
-10.14,-0.16,-0.47,-10.13,-0.13,-0.37,10.14,-0.01,-0.03,-0.1,0.1
-10.18,0.04,0.12,-10.14,-0.1,-0.27,10.14,-0.04,0.13,0.39,0.42
-10.3,0.16,-0.19,-10.17,-0.04,-0.26,10.17,-0.13,0.2,0.06,0.25
-9.94,0.12,-0.7,-10.13,-0.01,-0.35,10.13,0.18,0.13,-0.35,0.42
-9.91,0.04,0.04,-10.08,0,-0.27,10.09,0.18,0.04,0.31,0.36
-10.02,0.23,-0.43,-10.07,0.05,-0.3,10.07,0.05,0.19,-0.13,0.23
-10.22,0.16,-0.55,-10.1,0.07,-0.35,10.11,-0.12,0.09,-0.2,0.25
-10.02,-0.04,-0.82,-10.08,0.05,-0.44,10.09,0.06,-0.08,-0.37,0.39
-10.37,0.12,-1.25,-10.14,0.06,-0.6,10.16,-0.23,0.06,-0.64,0.69
-9.79,-0.04,-1.29,-10.07,0.04,-0.74,10.1,0.28,-0.08,-0.55,0.62
-9.91,0.27,-1.79,-10.04,0.09,-0.95,10.08,0.13,0.19,-0.84,0.87
-10.22,0.08,-0.58,-10.07,0.09,-0.88,10.11,-0.14,-0.01,0.29,0.33
-10.06,-0.19,-0.35,-10.07,0.03,-0.77,10.1,0.01,-0.22,0.42,0.48
-10.37,0.04,-0.66,-10.13,0.03,-0.75,10.16,-0.24,0.01,0.09,0.26
-9.98,-0.04,0,-10.1,0.02,-0.6,10.12,0.12,-0.06,0.6,0.61
-10.26,0.04,-0.12,-10.13,0.02,-0.5,10.15,-0.12,0.02,0.39,0.41
-10.06,0.12,-0.43,-10.12,0.04,-0.49,10.13,0.06,0.08,0.06,0.11
-10.18,0.19,-0.47,-10.13,0.07,-0.48,10.14,-0.05,0.12,0.02,0.13
-10.22,0.08,-0.27,-10.15,0.07,-0.44,10.16,-0.07,0.01,0.17,0.18
-9.94,0.23,-0.43,-10.11,0.11,-0.44,10.12,0.16,0.13,0.01,0.21
-9.98,0.35,-0.16,-10.08,0.15,-0.38,10.09,0.1,0.2,0.23,0.32
-10.06,0.43,-0.43,-10.08,0.21,-0.39,10.09,0.02,0.22,-0.04,0.22
-10.06,0.12,-0.43,-10.08,0.19,-0.4,10.09,0.01,-0.07,-0.03,0.08
-10.02,0.27,-0.9,-10.06,0.21,-0.5,10.08,0.04,0.07,-0.4,0.41
-9.94,0.39,-0.35,-10.04,0.24,-0.47,10.05,0.1,0.15,0.12,0.21
-10.22,0.31,-0.7,-10.08,0.26,-0.52,10.09,-0.14,0.05,-0.19,0.24
-10.06,0.35,-0.31,-10.07,0.28,-0.48,10.09,0.01,0.07,0.16,0.18
-9.98,0.12,0.08,-10.06,0.24,-0.36,10.07,0.07,-0.13,0.44,0.47
-9.98,0.23,-0.74,-10.04,0.24,-0.44,10.05,0.06,-0.01,-0.3,0.31
-9.94,0.27,-0.08,-10.02,0.25,-0.37,10.03,0.08,0.02,0.29,0.3
-10.26,0.23,-0.86,-10.07,0.25,-0.47,10.08,-0.19,-0.01,-0.39,0.44
-10.18,0.23,-0.35,-10.09,0.24,-0.44,10.1,-0.09,-0.01,0.09,0.13
-9.87,0.08,-0.19,-10.05,0.21,-0.39,10.06,0.18,-0.13,0.2,0.3
-10.02,0.19,-0.31,-10.04,0.21,-0.38,10.05,0.02,-0.01,0.06,0.07
-10.14,0.27,-0.27,-10.06,0.22,-0.36,10.07,-0.08,0.05,0.08,0.13
-10.06,0.19,-0.7,-10.06,0.22,-0.43,10.07,0,-0.02,-0.28,0.28
-10.02,0.08,-0.19,-10.05,0.19,-0.38,10.06,0.03,-0.11,0.18,0.22
-9.91,0.31,-0.43,-10.02,0.21,-0.39,10.03,0.12,0.1,-0.04,0.16
-10.53,0.23,-0.43,-10.13,0.22,-0.4,10.14,-0.4,0.02,-0.03,0.41
-9.79,0,-0.35,-10.06,0.17,-0.39,10.07,0.27,-0.17,0.04,0.32
-10.06,0.27,-1.13,-10.06,0.19,-0.54,10.08,0,0.08,-0.59,0.6
-10.1,0.12,-0.27,-10.07,0.18,-0.48,10.08,-0.03,-0.06,0.21,0.22
-9.98,0.31,-0.35,-10.05,0.2,-0.46,10.06,0.07,0.11,0.11,0.16
-10.06,0.27,-0.62,-10.05,0.22,-0.49,10.07,-0.01,0.05,-0.13,0.14
-10.22,0.23,-0.47,-10.09,0.22,-0.49,10.1,-0.13,0.01,0.02,0.13
-9.98,0.27,-0.98,-10.07,0.23,-0.58,10.09,0.08,0.04,-0.39,0.4
-9.98,0.35,-1.72,-10.05,0.26,-0.81,10.09,0.07,0.1,-0.91,0.91
-10.3,-0.08,-1.48,-10.1,0.19,-0.94,10.14,-0.2,-0.27,-0.54,0.63
-10.26,0.08,-1.21,-10.13,0.17,-1,10.18,-0.13,-0.09,-0.21,0.26
-9.79,0.23,-1.25,-10.06,0.18,-1.05,10.12,0.27,0.05,-0.2,0.34
-9.91,0.23,-0.7,-10.03,0.19,-0.98,10.08,0.12,0.04,0.28,0.31
-10.41,0.39,-0.27,-10.11,0.23,-0.84,10.14,-0.31,0.16,0.56,0.66
-9.98,0.39,-0.19,-10.08,0.26,-0.71,10.11,0.1,0.13,0.51,0.54
-9.91,0.31,-0.55,-10.05,0.27,-0.68,10.07,0.14,0.04,0.13,0.2
-10.41,0.19,-0.55,-10.12,0.26,-0.65,10.14,-0.29,-0.06,0.1,0.32
-10.06,0.23,-0.43,-10.11,0.25,-0.61,10.13,0.05,-0.02,0.18,0.18
-9.67,0.31,-0.47,-10.02,0.26,-0.58,10.04,0.35,0.05,0.11,0.37
-10.18,0.19,-0.74,-10.05,0.25,-0.61,10.07,-0.13,-0.06,-0.13,0.19
-10.37,0.19,-0.08,-10.12,0.24,-0.5,10.13,-0.26,-0.04,0.43,0.5
-9.94,0.47,-0.7,-10.08,0.29,-0.54,10.1,0.14,0.18,-0.16,0.28
-10.02,0,-0.98,-10.07,0.23,-0.63,10.09,0.05,-0.23,-0.34,0.42
-10.06,-0.04,-0.86,-10.07,0.17,-0.68,10.09,0.01,-0.21,-0.18,0.28
-10.45,0.04,-1.48,-10.15,0.15,-0.84,10.18,-0.31,-0.11,-0.65,0.72
-9.71,0.08,-1.64,-10.06,0.13,-1,10.11,0.35,-0.06,-0.64,0.73
-9.91,0.27,-1.01,-10.03,0.16,-1,10.08,0.12,0.11,-0.01,0.17
-10.37,0.27,-0.35,-10.1,0.18,-0.87,10.14,-0.28,0.09,0.52,0.6
-10.14,0,-0.66,-10.11,0.15,-0.83,10.14,-0.03,-0.15,0.17,0.22
-9.83,0.19,-0.51,-10.05,0.16,-0.76,10.08,0.22,0.04,0.26,0.34
-9.83,0.31,-0.62,-10.01,0.19,-0.74,10.03,0.18,0.12,0.11,0.24
-10.14,0.39,-0.35,-10.03,0.23,-0.66,10.06,-0.11,0.16,0.31,0.36
-10.02,0.51,-1.91,-10.03,0.28,-0.91,10.08,0.01,0.22,-1,1.03
-9.75,0.51,-1.37,-9.97,0.33,-1,10.03,0.22,0.18,-0.36,0.46
-10.3,0.19,-1.72,-10.04,0.3,-1.14,10.11,-0.26,-0.11,-0.57,0.64
-9.94,0,-0.7,-10.02,0.24,-1.06,10.08,0.08,-0.24,0.35,0.43
-9.94,0.19,-1.25,-10.01,0.23,-1.09,10.07,0.06,-0.04,-0.15,0.17
-10.49,0.47,-1.68,-10.1,0.28,-1.21,10.18,-0.39,0.19,-0.47,0.64
-10.06,0.35,-1.01,-10.09,0.29,-1.17,10.17,0.03,0.06,0.16,0.17
-11.23,1.13,-0.7,-10.32,0.46,-1.08,10.39,-0.91,0.67,0.38,1.19
-9.87,0.12,-0.27,-10.23,0.39,-0.92,10.28,0.36,-0.28,0.64,0.79
-9.67,0.08,-0.43,-10.12,0.33,-0.82,10.16,0.45,-0.25,0.39,0.64
-10.3,0.39,-0.39,-10.15,0.34,-0.73,10.19,-0.14,0.05,0.34,0.37
-10.41,0.23,-0.55,-10.21,0.32,-0.7,10.23,-0.21,-0.09,0.15,0.27
-9.91,0.35,-0.31,-10.15,0.33,-0.62,10.17,0.24,0.02,0.31,0.39
-9.32,0.7,-0.43,-9.98,0.4,-0.58,10.01,0.66,0.3,0.15,0.74
-10.53,0.55,-0.23,-10.09,0.43,-0.51,10.11,-0.44,0.12,0.28,0.53
-10.41,0.23,-0.35,-10.16,0.39,-0.48,10.17,-0.26,-0.16,0.13,0.33
-9.63,0.19,-0.27,-10.05,0.35,-0.44,10.07,0.42,-0.16,0.17,0.48
-10.22,0.39,-0.51,-10.08,0.36,-0.45,10.1,-0.13,0.03,-0.06,0.15
-10.26,0.31,0.23,-10.12,0.35,-0.31,10.13,-0.14,-0.04,0.55,0.57
-9.75,0.62,-0.39,-10.05,0.4,-0.33,10.06,0.3,0.22,-0.06,0.37
-10.34,0.31,-0.31,-10.1,0.39,-0.33,10.12,-0.23,-0.07,0.01,0.24
-10.26,0.47,-0.31,-10.13,0.4,-0.32,10.15,-0.12,0.07,0.01,0.14
-9.63,0.31,-0.27,-10.03,0.38,-0.31,10.05,0.4,-0.07,0.04,0.41
-10.22,0.74,-0.7,-10.07,0.46,-0.39,10.09,-0.15,0.29,-0.31,0.45
-9.83,0.23,-0.27,-10.02,0.41,-0.37,10.04,0.19,-0.18,0.09,0.28
-10.02,0.04,-1.05,-10.02,0.34,-0.5,10.04,0,-0.3,-0.55,0.62
-10.22,0.23,-1.48,-10.06,0.32,-0.7,10.09,-0.16,-0.08,-0.78,0.8
-10.1,0.31,-1.09,-10.07,0.32,-0.78,10.1,-0.03,0,-0.31,0.32
-9.91,0.62,-2.11,-10.04,0.38,-1.04,10.1,0.13,0.25,-1.06,1.1
-10.06,0.58,-1.91,-10.04,0.42,-1.22,10.12,-0.02,0.17,-0.69,0.71
-9.94,0.47,-1.44,-10.02,0.43,-1.26,10.11,0.08,0.04,-0.18,0.2
-10.37,0.04,-1.29,-10.09,0.35,-1.27,10.18,-0.28,-0.31,-0.02,0.42
-9.94,0.39,-1.6,-10.06,0.36,-1.33,10.16,0.12,0.03,-0.27,0.29
-10.1,0.23,-0.86,-10.07,0.33,-1.24,10.15,-0.03,-0.1,0.38,0.39
-10.22,0.35,-0.58,-10.1,0.34,-1.11,10.17,-0.12,0.01,0.52,0.54
-9.98,0.35,-0.39,-10.08,0.34,-0.96,10.13,0.09,0.01,0.57,0.58
-10.06,0.31,-0.23,-10.07,0.33,-0.82,10.11,0.01,-0.02,0.58,0.58
-10.18,0.16,0.04,-10.09,0.3,-0.65,10.12,-0.08,-0.14,0.69,0.71
-9.94,0.74,-0.12,-10.06,0.39,-0.54,10.09,0.12,0.35,0.42,0.57
-9.91,0.51,-0.43,-10.03,0.41,-0.52,10.05,0.13,0.1,0.09,0.18
-10.18,0.39,-0.19,-10.06,0.41,-0.45,10.08,-0.12,-0.02,0.26,0.28
-10.02,0.23,0.27,-10.05,0.37,-0.31,10.07,0.03,-0.14,0.58,0.6
-10.45,0.51,0.74,-10.13,0.4,-0.1,10.14,-0.32,0.11,0.84,0.9
-9.75,0.51,0.55,-10.06,0.42,0.03,10.07,0.31,0.09,0.52,0.61
-9.94,0.35,0.19,-10.03,0.41,0.06,10.04,0.09,-0.06,0.13,0.17
-10.18,0.31,0.04,-10.06,0.39,0.06,10.07,-0.12,-0.08,-0.02,0.14
-10.18,0.31,-0.12,-10.09,0.37,0.02,10.09,-0.09,-0.06,-0.14,0.18
-9.87,0.19,-0.35,-10.04,0.34,-0.05,10.05,0.18,-0.14,-0.3,0.38
-10.14,0.47,-0.19,-10.06,0.36,-0.08,10.07,-0.08,0.1,-0.11,0.17
-10.3,0.19,-0.7,-10.11,0.33,-0.2,10.12,-0.19,-0.13,-0.5,0.55
-9.75,0.16,-0.9,-10.04,0.29,-0.34,10.05,0.29,-0.14,-0.55,0.64
-10.14,0.31,-0.86,-10.06,0.3,-0.45,10.07,-0.08,0.01,-0.41,0.42
-10.1,0.27,-1.4,-10.07,0.29,-0.64,10.09,-0.03,-0.02,-0.77,0.77
-10.02,0.39,-1.95,-10.06,0.31,-0.9,10.1,0.03,0.08,-1.05,1.05
-10.02,-0.04,-1.25,-10.05,0.24,-0.97,10.1,0.03,-0.28,-0.28,0.4
-10.18,0.35,-1.17,-10.08,0.26,-1.01,10.13,-0.1,0.09,-0.16,0.21
-10.1,0.27,-1.52,-10.08,0.27,-1.11,10.15,-0.02,0.01,-0.41,0.41
-10.18,0.35,-1.64,-10.1,0.28,-1.22,10.18,-0.08,0.07,-0.42,0.43
-9.83,0.35,-2.34,-10.05,0.3,-1.44,10.15,0.22,0.05,-0.9,0.93
-10.14,0.47,-1.25,-10.07,0.33,-1.4,10.17,-0.07,0.14,0.16,0.22
-10.26,0.35,-1.83,-10.1,0.33,-1.49,10.22,-0.15,0.02,-0.34,0.38
-9.79,0.08,0.16,-10.04,0.28,-1.16,10.11,0.25,-0.21,1.32,1.36
-10.41,0.74,-0.86,-10.12,0.37,-1.1,10.18,-0.3,0.37,0.24,0.53
-9.98,0.23,-0.31,-10.09,0.35,-0.94,10.14,0.1,-0.11,0.63,0.65
-9.79,0.35,-0.19,-10.03,0.35,-0.79,10.07,0.24,0,0.6,0.64
-10.06,0.55,-0.04,-10.04,0.39,-0.64,10.06,-0.03,0.16,0.6,0.62
-10.1,0.39,0.16,-10.05,0.39,-0.48,10.07,-0.05,0,0.64,0.64
-10.06,0.43,-0.27,-10.05,0.4,-0.44,10.07,-0.01,0.03,0.17,0.17
-9.56,0.31,0.47,-9.95,0.38,-0.26,9.96,0.4,-0.07,0.73,0.83
-10.69,0.35,0.08,-10.1,0.37,-0.19,10.11,-0.59,-0.02,0.27,0.65
-10.06,0.27,0.23,-10.09,0.35,-0.11,10.1,0.03,-0.08,0.34,0.35
-9.79,0.27,-0.62,-10.03,0.34,-0.21,10.04,0.24,-0.06,-0.41,0.48
-10.26,0.27,0,-10.08,0.32,-0.17,10.08,-0.18,-0.05,0.17,0.25
-10.06,0.35,0.12,-10.07,0.33,-0.11,10.08,0.01,0.02,0.23,0.23
-9.91,0.55,-0.12,-10.04,0.37,-0.11,10.05,0.13,0.17,0,0.22
-10.1,0.19,-0.39,-10.05,0.34,-0.17,10.06,-0.05,-0.14,-0.22,0.27
-10.34,0.31,-0.19,-10.11,0.33,-0.17,10.12,-0.23,-0.02,-0.02,0.23
-9.94,0.31,-0.27,-10.08,0.33,-0.19,10.08,0.13,-0.02,-0.08,0.15
-10.45,0.47,-0.51,-10.15,0.36,-0.26,10.16,-0.3,0.11,-0.25,0.41
-9.94,0.23,-0.9,-10.11,0.33,-0.38,10.12,0.16,-0.1,-0.51,0.55
-9.71,0.58,-1.09,-10.03,0.38,-0.53,10.05,0.32,0.2,-0.57,0.68
-10.49,0.23,-0.47,-10.12,0.35,-0.51,10.14,-0.37,-0.12,0.05,0.39
-10.22,0.31,-0.74,-10.14,0.34,-0.56,10.16,-0.08,-0.03,-0.18,0.2
-9.87,0.62,-1.25,-10.09,0.4,-0.7,10.12,0.22,0.22,-0.55,0.63
-10.34,0.55,-2.26,-10.14,0.43,-1.01,10.2,-0.2,0.12,-1.25,1.27
-10.1,0.35,-1.44,-10.13,0.41,-1.1,10.2,0.03,-0.06,-0.35,0.35
-10.22,0.16,-0.39,-10.15,0.36,-0.96,10.2,-0.07,-0.21,0.57,0.61
-10.45,0.16,-0.35,-10.21,0.32,-0.83,10.25,-0.24,-0.17,0.48,0.57
-9.75,0.23,-0.78,-10.12,0.3,-0.82,10.15,0.37,-0.07,0.04,0.38
-9.98,0.51,-1.68,-10.09,0.34,-0.99,10.14,0.11,0.16,-0.68,0.71
-10.02,0.23,-0.62,-10.08,0.32,-0.92,10.12,0.05,-0.09,0.3,0.31
-10.57,0.04,-1.83,-10.18,0.27,-1.1,10.24,-0.39,-0.23,-0.73,0.86
-10.26,-0.62,-2.57,-10.19,0.09,-1.4,10.29,-0.07,-0.71,-1.18,1.38
-9.94,-0.86,-0.78,-10.14,-0.1,-1.27,10.22,0.2,-0.76,0.49,0.92
-10.18,-0.66,-0.98,-10.15,-0.21,-1.21,10.22,-0.03,-0.45,0.24,0.51
-9.83,-1.01,0.31,-10.09,-0.37,-0.91,10.13,0.26,-0.64,1.22,1.4
-10.1,-1.33,-0.58,-10.09,-0.56,-0.84,10.14,-0.01,-0.76,0.26,0.8
-10.8,-1.4,-1.13,-10.23,-0.73,-0.9,10.3,-0.57,-0.67,-0.23,0.91
-10.61,-1.17,-2.26,-10.31,-0.82,-1.17,10.41,-0.3,-0.35,-1.09,1.18
-9.94,-0.74,-1.4,-10.23,-0.8,-1.22,10.34,0.29,0.06,-0.18,0.35
-10.1,-0.27,-0.58,-10.21,-0.7,-1.09,10.29,0.11,0.42,0.51,0.67
-10.49,0.78,-1.6,-10.26,-0.4,-1.19,10.34,-0.23,1.18,-0.41,1.27
-9.63,1.79,-1.01,-10.14,0.04,-1.16,10.2,0.51,1.76,0.14,1.83
-10.49,2.54,-2.26,-10.21,0.54,-1.38,10.32,-0.28,2,-0.88,2.2
-8.85,1.91,-1.91,-9.94,0.81,-1.49,10.08,1.08,1.1,-0.43,1.6
-10.26,2.03,-1.29,-10,1.05,-1.45,10.16,-0.26,0.97,0.16,1.02
-9.09,1.83,-1.29,-9.82,1.21,-1.41,9.99,0.73,0.62,0.13,0.97
-10.06,1.44,-2.22,-9.87,1.26,-1.58,10.07,-0.19,0.19,-0.65,0.7
-10.22,1.95,-1.68,-9.94,1.4,-1.6,10.16,-0.28,0.55,-0.08,0.63
-11.51,2.03,-0.74,-10.25,1.52,-1.42,10.46,-1.25,0.51,0.68,1.52
-9.79,1.68,-1.13,-10.16,1.55,-1.37,10.37,0.37,0.12,0.24,0.46
-8.7,1.05,0.31,-9.87,1.45,-1.03,10.03,1.17,-0.4,1.34,1.82
-11.86,2.69,0.31,-10.26,1.7,-0.76,10.43,-1.59,0.99,1.07,2.16
-10.3,1.44,-0.78,-10.27,1.65,-0.77,10.43,-0.03,-0.21,-0.01,0.21
-8.74,0.94,-0.31,-9.96,1.51,-0.67,10.1,1.23,-0.57,0.36,1.4
-11.43,1.17,0.43,-10.26,1.44,-0.45,10.37,-1.17,-0.27,0.88,1.49
-9.87,0.82,0,-10.18,1.32,-0.36,10.27,0.31,-0.5,0.36,0.69
-9.28,1.05,0.58,-10,1.26,-0.17,10.08,0.72,-0.21,0.76,1.06
-9.94,0.7,0.55,-9.99,1.15,-0.03,10.05,0.04,-0.45,0.58,0.73
-10.53,1.87,1.05,-10.1,1.29,0.19,10.18,-0.43,0.58,0.87,1.13
-10.69,0.98,1.68,-10.21,1.23,0.48,10.3,-0.47,-0.26,1.19,1.31
-9.4,1.4,1.25,-10.05,1.27,0.64,10.15,0.65,0.14,0.61,0.9
-10.53,0.74,1.48,-10.15,1.16,0.81,10.25,-0.38,-0.42,0.68,0.88
-9.56,1.29,1.52,-10.03,1.19,0.95,10.14,0.47,0.1,0.57,0.75
-10.14,0.7,1.52,-10.05,1.09,1.06,10.17,-0.09,-0.39,0.46,0.61
-10.14,0.9,1.4,-10.07,1.05,1.13,10.19,-0.07,-0.15,0.27,0.32
-10.02,0.62,1.56,-10.06,0.97,1.22,10.18,0.04,-0.34,0.34,0.49
-9.83,0.74,1.44,-10.01,0.92,1.26,10.13,0.19,-0.18,0.18,0.31
-10.06,0.78,1.52,-10.02,0.89,1.31,10.15,-0.04,-0.11,0.21,0.24
-10.41,0.43,0.62,-10.1,0.8,1.18,10.2,-0.31,-0.37,-0.55,0.73
-9.63,0.43,0.47,-10.01,0.73,1.03,10.09,0.37,-0.3,-0.57,0.74
-9.87,0.43,0.51,-9.98,0.67,0.93,10.04,0.11,-0.24,-0.42,0.5
-10.45,0.86,0.74,-10.07,0.7,0.89,10.14,-0.38,0.15,-0.15,0.43
-9.98,0.16,0.78,-10.06,0.59,0.87,10.11,0.07,-0.44,-0.09,0.45
-10.06,0.43,0.43,-10.06,0.56,0.78,10.1,0,-0.13,-0.35,0.38
-10.37,0.19,0.55,-10.12,0.49,0.73,10.16,-0.25,-0.29,-0.19,0.43
-9.83,0.51,0.78,-10.06,0.49,0.74,10.1,0.23,0.01,0.04,0.24
-10.06,0.47,0.23,-10.06,0.49,0.64,10.09,0,-0.02,-0.41,0.41
-9.94,0.23,0.43,-10.04,0.44,0.6,10.07,0.09,-0.2,-0.17,0.28
-10.06,0.31,0,-10.04,0.41,0.48,10.06,-0.02,-0.1,-0.48,0.49
-10.22,0.31,-0.16,-10.08,0.39,0.35,10.09,-0.14,-0.08,-0.51,0.53
-9.79,0.62,-0.39,-10.02,0.44,0.2,10.03,0.23,0.19,-0.59,0.66
-9.94,0.35,-0.39,-10.01,0.42,0.08,10.01,0.06,-0.07,-0.47,0.48
-10.3,0.19,-0.19,-10.06,0.38,0.03,10.07,-0.23,-0.18,-0.22,0.37
-10.06,0.47,-0.16,-10.06,0.39,-0.01,10.07,0,0.07,-0.15,0.17
-9.91,0.31,-0.31,-10.03,0.38,-0.07,10.04,0.13,-0.07,-0.24,0.28
-9.94,0.58,-0.27,-10.01,0.42,-0.11,10.02,0.07,0.17,-0.16,0.24
-9.98,0.62,-1.21,-10.01,0.46,-0.33,10.02,0.02,0.16,-0.88,0.89
-9.75,0.35,-0.82,-9.96,0.44,-0.43,9.98,0.21,-0.09,-0.39,0.45
-10.18,0.74,-0.86,-10,0.5,-0.51,10.03,-0.18,0.24,-0.34,0.46
-10.14,0.27,-0.86,-10.03,0.45,-0.58,10.06,-0.11,-0.18,-0.28,0.35
-10.22,0.55,-0.55,-10.07,0.47,-0.58,10.09,-0.15,0.07,0.03,0.17
-9.87,0.51,-0.98,-10.03,0.48,-0.66,10.06,0.16,0.03,-0.32,0.36
-10.06,0.16,-0.47,-10.03,0.41,-0.62,10.06,-0.03,-0.26,0.15,0.3
-10.06,0.47,-0.31,-10.04,0.43,-0.56,10.06,-0.02,0.04,0.24,0.25
-9.94,0.47,-1.21,-10.02,0.43,-0.69,10.05,0.08,0.03,-0.52,0.53
-10.18,0.55,-0.66,-10.05,0.46,-0.68,10.09,-0.13,0.09,0.02,0.16
-9.94,0.7,-0.74,-10.03,0.51,-0.69,10.07,0.09,0.2,-0.05,0.22
-9.94,0.31,-0.62,-10.01,0.47,-0.68,10.05,0.07,-0.15,0.06,0.18
-9.98,0.55,-0.98,-10.01,0.48,-0.74,10.05,0.02,0.06,-0.24,0.25
-9.94,0.31,-0.86,-10,0.45,-0.76,10.03,0.05,-0.14,-0.1,0.17
-10.14,0.55,-1.13,-10.02,0.47,-0.84,10.07,-0.12,0.08,-0.29,0.33
-10.02,0.23,-1.05,-10.02,0.42,-0.88,10.07,0,-0.19,-0.17,0.26
-10.06,0.7,-1.17,-10.03,0.48,-0.94,10.09,-0.03,0.22,-0.23,0.32
-9.75,0.51,-0.9,-9.98,0.48,-0.93,10.03,0.23,0.02,0.03,0.23
-10.41,0,-0.86,-10.06,0.39,-0.92,10.11,-0.35,-0.39,0.06,0.52
-10.34,-0.23,-1.56,-10.12,0.26,-1.04,10.17,-0.22,-0.5,-0.52,0.75
-10.3,-0.27,-0.9,-10.15,0.16,-1.01,10.2,-0.14,-0.43,0.12,0.47
-8.58,-0.12,-1.4,-9.84,0.1,-1.09,9.9,1.26,-0.22,-0.31,1.31
-10.49,-0.31,-1.87,-9.97,0.02,-1.25,10.05,-0.52,-0.33,-0.62,0.88
-10.45,-1.21,-2.46,-10.07,-0.23,-1.49,10.18,-0.39,-0.98,-0.97,1.43
-9.67,-0.7,-1.48,-9.99,-0.32,-1.49,10.1,0.31,-0.38,0.01,0.49
-10.37,-0.7,-1.56,-10.06,-0.4,-1.5,10.18,-0.31,-0.3,-0.06,0.44
-10.22,-0.51,-1.72,-10.1,-0.42,-1.55,10.22,-0.12,-0.09,-0.17,0.23
-10.26,-0.55,-1.64,-10.13,-0.45,-1.56,10.26,-0.13,-0.1,-0.07,0.18
-10.84,0.19,-0.31,-10.27,-0.32,-1.31,10.36,-0.57,0.51,1,1.26
-10.26,-0.08,-1.13,-10.27,-0.27,-1.28,10.35,0.01,0.19,0.15,0.24
-9.75,-0.04,-0.12,-10.16,-0.22,-1.05,10.22,0.41,0.18,0.93,1.03
-10.3,-0.08,0.04,-10.19,-0.19,-0.83,10.23,-0.11,0.12,0.87,0.88
-9.52,0.66,-0.27,-10.06,-0.02,-0.72,10.08,0.54,0.69,0.44,0.98
-10.45,0.39,-0.19,-10.13,0.06,-0.61,10.15,-0.32,0.33,0.42,0.62
-9.91,0.86,0.08,-10.09,0.22,-0.47,10.1,0.18,0.64,0.55,0.86
-10.06,0.39,0.19,-10.08,0.25,-0.34,10.09,0.02,0.14,0.54,0.55
-11.7,0.12,-1.21,-10.41,0.23,-0.51,10.42,-1.29,-0.11,-0.69,1.47
-9.48,0.47,0.39,-10.22,0.27,-0.33,10.23,0.74,0.19,0.72,1.06
-10.3,0.35,0.23,-10.24,0.29,-0.22,10.24,-0.06,0.06,0.45,0.46
-10.26,0.58,0.43,-10.24,0.35,-0.09,10.25,-0.02,0.24,0.52,0.57
-10.18,0.55,0.58,-10.23,0.39,0.04,10.24,0.05,0.16,0.54,0.56
-9.79,0.55,0.19,-10.14,0.42,0.07,10.15,0.35,0.13,0.12,0.39
-10.41,0.55,0.62,-10.19,0.45,0.18,10.21,-0.22,0.1,0.44,0.5
-10.92,0.47,0.51,-10.34,0.45,0.25,10.35,-0.58,0.02,0.26,0.64
-9.94,0.39,0.19,-10.26,0.44,0.24,10.27,0.32,-0.05,-0.04,0.32
-10.1,0.35,0.12,-10.23,0.42,0.21,10.24,0.13,-0.07,-0.1,0.17
-10.41,0.35,0.78,-10.27,0.41,0.33,10.28,-0.15,-0.06,0.45,0.48
-9.75,0.27,0.27,-10.16,0.38,0.32,10.17,0.41,-0.11,-0.04,0.43
-10.61,0.35,-0.39,-10.25,0.37,0.18,10.26,-0.36,-0.02,-0.57,0.67
-10.06,0.31,-0.39,-10.21,0.36,0.06,10.22,0.15,-0.05,-0.45,0.48
-9.83,0.27,-0.23,-10.14,0.34,0,10.14,0.31,-0.07,-0.24,0.4
-10.45,0.27,-0.55,-10.2,0.33,-0.11,10.21,-0.25,-0.06,-0.44,0.51
-10.3,0.16,-1.05,-10.22,0.29,-0.3,10.23,-0.08,-0.14,-0.76,0.77
-10.02,0.12,-1.91,-10.18,0.26,-0.62,10.2,0.16,-0.14,-1.29,1.31
-9.94,0.47,-0.9,-10.13,0.3,-0.67,10.16,0.19,0.17,-0.22,0.34
-11.19,0.12,-0.9,-10.34,0.26,-0.72,10.37,-0.85,-0.15,-0.18,0.88
-10.02,-0.12,-1.01,-10.28,0.19,-0.78,10.31,0.26,-0.31,-0.24,0.46
-9.59,0.04,-0.55,-10.14,0.16,-0.73,10.17,0.55,-0.12,0.19,0.59
-10.1,0.12,-0.66,-10.13,0.15,-0.72,10.16,0.03,-0.03,0.05,0.07
-10.37,0.19,-0.47,-10.18,0.16,-0.67,10.21,-0.19,0.04,0.2,0.28
-9.87,0.43,-0.74,-10.12,0.21,-0.68,10.14,0.25,0.22,-0.06,0.34
-10.06,0.47,-1.87,-10.11,0.26,-0.92,10.15,0.05,0.2,-0.95,0.97
-10.14,0.35,-1.25,-10.11,0.28,-0.99,10.17,-0.03,0.07,-0.26,0.27
-9.79,0.51,-1.37,-10.05,0.33,-1.06,10.11,0.26,0.18,-0.3,0.44
-9.94,0.35,-2.18,-10.03,0.33,-1.29,10.12,0.08,0.02,-0.9,0.9
-9.75,0.19,-0.82,-9.97,0.3,-1.19,10.05,0.22,-0.11,0.37,0.45
-10.1,0.78,-0.51,-10,0.4,-1.06,10.06,-0.1,0.38,0.55,0.68
-10.22,0.31,-0.27,-10.04,0.38,-0.9,10.09,-0.18,-0.07,0.63,0.65
-10.18,0.19,-1.4,-10.07,0.34,-1,10.13,-0.11,-0.15,-0.4,0.44
-9.98,-0.04,-1.48,-10.05,0.27,-1.1,10.12,0.07,-0.31,-0.39,0.5
-9.98,0.16,-0.39,-10.04,0.25,-0.96,10.09,0.05,-0.09,0.57,0.57
-10.53,0.08,-0.04,-10.14,0.21,-0.77,10.17,-0.39,-0.13,0.73,0.84
-9.83,0.31,-0.16,-10.08,0.23,-0.65,10.1,0.25,0.08,0.49,0.56
-10.22,0.16,-0.16,-10.1,0.22,-0.55,10.12,-0.11,-0.06,0.39,0.41
-9.91,0.12,-0.23,-10.06,0.2,-0.49,10.08,0.16,-0.08,0.25,0.31
-10.06,0.23,0.08,-10.06,0.2,-0.37,10.07,0,0.03,0.45,0.45
-9.98,0.39,-0.35,-10.05,0.24,-0.37,10.06,0.06,0.15,0.02,0.16
-9.98,0.39,0.04,-10.04,0.27,-0.29,10.04,0.05,0.12,0.33,0.35
-10.18,0.19,0.47,-10.06,0.26,-0.14,10.07,-0.12,-0.06,0.6,0.62
-10.26,0.43,0.08,-10.1,0.29,-0.09,10.11,-0.15,0.14,0.17,0.27
-9.63,0.19,-0.23,-10.01,0.27,-0.12,10.01,0.38,-0.08,-0.11,0.4
-10.22,0.39,0.47,-10.05,0.3,0,10.05,-0.17,0.09,0.47,0.51
-10.02,0.23,-0.39,-10.04,0.28,-0.08,10.05,0.02,-0.05,-0.31,0.31
-10.02,0.27,0.39,-10.04,0.28,0.01,10.04,0.02,-0.01,0.38,0.38
-10.18,0.55,-0.12,-10.07,0.33,-0.01,10.07,-0.11,0.21,-0.1,0.26
-10.14,0.23,-0.19,-10.08,0.31,-0.05,10.09,-0.06,-0.08,-0.15,0.18
-9.71,0.39,0.16,-10.01,0.33,-0.01,10.01,0.3,0.06,0.16,0.35
-10.34,0.08,-0.04,-10.07,0.28,-0.01,10.08,-0.26,-0.2,-0.02,0.33
-10.37,0.23,0.04,-10.13,0.27,0,10.14,-0.24,-0.04,0.04,0.25
-10.26,0.19,-0.12,-10.16,0.25,-0.03,10.16,-0.1,-0.06,-0.09,0.15
-10.22,0.08,-0.23,-10.17,0.22,-0.07,10.17,-0.05,-0.14,-0.17,0.22
-10.14,0.31,0.19,-10.16,0.24,-0.02,10.17,0.02,0.07,0.21,0.22
-10.14,0.35,-0.62,-10.16,0.26,-0.14,10.16,0.02,0.09,-0.49,0.5
-9.59,0.47,-0.16,-10.05,0.3,-0.14,10.05,0.45,0.17,-0.02,0.48
-10.57,0.23,-0.19,-10.15,0.29,-0.15,10.16,-0.42,-0.05,-0.04,0.42
-9.87,0.58,0.74,-10.09,0.35,0.03,10.1,0.23,0.24,0.71,0.79
-10.02,0.58,0.66,-10.08,0.4,0.15,10.09,0.06,0.19,0.51,0.55
-9.94,0.35,1.13,-10.05,0.39,0.35,10.07,0.11,-0.04,0.78,0.79
-10.69,0.31,0.23,-10.18,0.37,0.33,10.19,-0.51,-0.06,-0.09,0.52
-9.79,0.35,-0.62,-10.1,0.37,0.14,10.11,0.31,-0.02,-0.76,0.82
-9.52,0.19,-0.19,-9.98,0.33,0.07,9.99,0.47,-0.14,-0.27,0.56
-10.73,0.35,-0.08,-10.13,0.34,0.04,10.14,-0.59,0.01,-0.12,0.6
-10.49,0.08,-0.16,-10.2,0.28,0,10.21,-0.29,-0.21,-0.16,0.39
-9.67,0.31,0.08,-10.1,0.29,0.02,10.1,0.43,0.02,0.06,0.43
-10.22,0.74,-0.66,-10.12,0.38,-0.12,10.13,-0.1,0.36,-0.54,0.66
-10.3,0.19,0.08,-10.16,0.34,-0.08,10.16,-0.14,-0.15,0.16,0.26
-9.4,0.51,-0.39,-10.01,0.38,-0.14,10.01,0.61,0.13,-0.25,0.67
-10.45,0.51,-0.55,-10.09,0.4,-0.22,10.1,-0.36,0.1,-0.32,0.49
-10.26,0.08,-0.12,-10.13,0.34,-0.2,10.13,-0.13,-0.26,0.08,0.3
-9.83,0.19,0,-10.07,0.31,-0.16,10.07,0.24,-0.11,0.16,0.31
-10.3,0.58,-0.74,-10.11,0.36,-0.28,10.12,-0.18,0.22,-0.46,0.55
-9.67,0.23,0.04,-10.02,0.34,-0.21,10.03,0.35,-0.1,0.25,0.45
-10.3,0.43,-0.43,-10.08,0.36,-0.26,10.09,-0.22,0.07,-0.17,0.29
-10.22,0.27,0.08,-10.11,0.34,-0.19,10.11,-0.11,-0.07,0.27,0.3
-10.14,0.19,-0.31,-10.11,0.31,-0.21,10.12,-0.03,-0.12,-0.1,0.15
-10.1,0.62,-0.55,-10.11,0.37,-0.28,10.12,0.01,0.25,-0.27,0.37
-10.14,0.43,-0.66,-10.12,0.38,-0.36,10.13,-0.02,0.04,-0.31,0.31
-10.02,0.39,-0.23,-10.1,0.39,-0.33,10.11,0.08,0,0.1,0.12
-10.06,0.39,-0.27,-10.09,0.39,-0.32,10.1,0.03,0,0.05,0.06
-10.06,0.55,-0.08,-10.09,0.42,-0.27,10.1,0.02,0.13,0.19,0.23
-9.79,0.35,-0.12,-10.03,0.4,-0.24,10.04,0.24,-0.05,0.12,0.27
-9.91,0.58,-0.47,-10,0.44,-0.29,10.02,0.1,0.14,-0.18,0.25
-9.83,0.55,-0.51,-9.97,0.46,-0.33,9.98,0.14,0.08,-0.18,0.24
-10.3,0.62,-0.55,-10.03,0.49,-0.37,10.05,-0.26,0.13,-0.17,0.34
-9.94,0.31,-0.7,-10.02,0.46,-0.44,10.04,0.07,-0.15,-0.26,0.31
-10.34,0.23,-0.78,-10.08,0.41,-0.51,10.1,-0.26,-0.18,-0.27,0.41
-9.87,0.62,-1.01,-10.04,0.46,-0.61,10.07,0.17,0.17,-0.41,0.47
-9.67,0.58,-0.82,-9.96,0.48,-0.65,10,0.29,0.1,-0.17,0.35
-10.1,0.04,-1.01,-9.99,0.39,-0.72,10.03,-0.11,-0.35,-0.29,0.47
-10.18,0.12,-0.78,-10.03,0.34,-0.73,10.06,-0.15,-0.22,-0.05,0.27
-10.22,0.35,-0.23,-10.07,0.34,-0.63,10.09,-0.15,0.01,0.4,0.43
-10.18,0.23,-0.35,-10.09,0.32,-0.58,10.11,-0.09,-0.09,0.23,0.26
-10.18,0.31,-0.7,-10.11,0.32,-0.6,10.13,-0.07,-0.01,-0.1,0.12
-9.98,0.58,-0.74,-10.08,0.37,-0.63,10.11,0.1,0.21,-0.11,0.26
-10.02,0.66,-0.31,-10.07,0.43,-0.57,10.1,0.05,0.23,0.25,0.35
-10.18,0.55,-0.35,-10.09,0.45,-0.52,10.12,-0.09,0.09,0.17,0.21
-9.94,0.47,-0.62,-10.06,0.46,-0.54,10.09,0.12,0.01,-0.08,0.14
-10.06,0.62,-0.35,-10.06,0.49,-0.51,10.09,0,0.13,0.15,0.2
-10.06,0.31,-0.27,-10.06,0.45,-0.46,10.08,0,-0.14,0.19,0.23
-10.06,0.23,-0.35,-10.06,0.41,-0.44,10.08,0,-0.18,0.09,0.2
-9.98,0.7,0.35,-10.05,0.47,-0.28,10.06,0.06,0.23,0.63,0.68
-10.34,0.58,0.78,-10.1,0.49,-0.07,10.12,-0.23,0.09,0.85,0.88
-9.98,0.31,0.51,-10.08,0.46,0.05,10.09,0.1,-0.14,0.46,0.49
-9.91,0.62,0.35,-10.05,0.49,0.11,10.06,0.14,0.13,0.24,0.31
-10.14,0.7,0.62,-10.06,0.53,0.21,10.08,-0.08,0.17,0.41,0.45
-10.3,0.62,0.31,-10.11,0.55,0.23,10.13,-0.19,0.07,0.08,0.22
-9.91,0.74,0.31,-10.07,0.59,0.25,10.09,0.16,0.15,0.06,0.23
-10.02,0.78,0.12,-10.06,0.63,0.22,10.08,0.04,0.15,-0.1,0.19
-10.06,0.86,0.16,-10.06,0.67,0.21,10.09,0,0.18,-0.05,0.19
-10.1,0.55,0.08,-10.07,0.65,0.18,10.09,-0.03,-0.1,-0.1,0.15
-10.06,0.7,-0.51,-10.07,0.66,0.04,10.09,0.01,0.04,-0.55,0.55
-9.94,0.66,-1.25,-10.04,0.66,-0.21,10.07,0.1,0,-1.03,1.04
-10.26,0.39,-0.78,-10.09,0.61,-0.33,10.11,-0.17,-0.22,-0.45,0.53
-10.14,0.35,-0.27,-10.1,0.55,-0.32,10.12,-0.04,-0.2,0.04,0.21
-9.91,0.7,-0.82,-10.06,0.58,-0.42,10.08,0.15,0.12,-0.4,0.45
-9.71,0.86,0,-9.99,0.64,-0.33,10.01,0.28,0.22,0.33,0.49
-10.37,0.82,-0.04,-10.07,0.67,-0.27,10.09,-0.31,0.14,0.24,0.41
-10.22,0.58,0.27,-10.1,0.66,-0.17,10.12,-0.12,-0.07,0.44,0.46
-9.94,0.58,0.16,-10.07,0.64,-0.1,10.09,0.12,-0.06,0.26,0.29
-10.22,0.55,0.27,-10.1,0.62,-0.03,10.12,-0.12,-0.08,0.3,0.33
-10.18,0.47,0.43,-10.11,0.59,0.06,10.13,-0.07,-0.12,0.36,0.39
-10.1,0.43,0.23,-10.11,0.56,0.1,10.13,0.01,-0.13,0.14,0.19
-9.98,0.43,-0.19,-10.09,0.53,0.04,10.1,0.1,-0.1,-0.23,0.28
-9.94,0.58,-0.23,-10.06,0.54,-0.01,10.07,0.11,0.04,-0.22,0.25
-10.06,0.51,-0.94,-10.06,0.54,-0.2,10.07,0,-0.03,-0.74,0.74
-9.94,0.78,-0.35,-10.04,0.59,-0.23,10.06,0.09,0.19,-0.12,0.25
-10.06,0.58,-0.43,-10.04,0.59,-0.27,10.06,-0.02,0,-0.16,0.16
-9.91,0.66,-0.08,-10.01,0.6,-0.23,10.03,0.11,0.06,0.15,0.2
-10.14,0.58,-0.51,-10.04,0.6,-0.29,10.06,-0.1,-0.01,-0.22,0.24
-10.14,0.35,-0.23,-10.06,0.55,-0.28,10.08,-0.08,-0.2,0.04,0.22
-9.98,0.39,-0.19,-10.04,0.52,-0.26,10.06,0.06,-0.13,0.06,0.15
-10.18,0.7,-0.94,-10.07,0.55,-0.39,10.09,-0.11,0.15,-0.54,0.57
-10.14,0.51,-0.35,-10.08,0.54,-0.39,10.11,-0.06,-0.04,0.04,0.08
-9.83,0.55,-0.16,-10.03,0.54,-0.34,10.05,0.21,0,0.18,0.28
-10.22,0.51,-0.7,-10.07,0.54,-0.41,10.09,-0.15,-0.03,-0.29,0.33
-9.94,0.47,0.16,-10.05,0.52,-0.3,10.06,0.1,-0.06,0.45,0.47
-9.87,0.74,-0.43,-10.01,0.57,-0.32,10.03,0.14,0.17,-0.1,0.25
-10.06,0.7,-0.47,-10.02,0.59,-0.35,10.04,-0.04,0.11,-0.11,0.16
-10.18,0.43,-1.33,-10.05,0.56,-0.55,10.08,-0.13,-0.13,-0.78,0.8
-9.75,0.47,-1.75,-9.99,0.54,-0.79,10.04,0.24,-0.07,-0.97,1
-9.98,0.47,-0.82,-9.99,0.53,-0.8,10.04,0.01,-0.06,-0.02,0.06
-10.22,0.47,-1.01,-10.04,0.52,-0.84,10.08,-0.18,-0.05,-0.17,0.26
-10.06,0.23,-0.51,-10.04,0.46,-0.77,10.08,-0.02,-0.23,0.27,0.35
-9.98,0.82,-0.86,-10.03,0.53,-0.79,10.07,0.05,0.29,-0.07,0.3
-10.14,0.62,-0.62,-10.05,0.55,-0.76,10.1,-0.09,0.07,0.13,0.18
-10.06,0.27,-0.43,-10.05,0.49,-0.69,10.09,-0.01,-0.22,0.26,0.34
-9.87,0.74,-0.58,-10.02,0.54,-0.67,10.05,0.15,0.2,0.08,0.26
-10.14,0.74,-0.78,-10.04,0.58,-0.69,10.08,-0.1,0.16,-0.09,0.21
-9.94,0.51,-0.94,-10.02,0.57,-0.74,10.07,0.08,-0.06,-0.2,0.22
-9.98,0.74,-0.58,-10.01,0.6,-0.71,10.06,0.03,0.14,0.12,0.19
-10.26,0.47,-0.78,-10.06,0.58,-0.72,10.11,-0.19,-0.11,-0.06,0.23
-9.91,0.62,-0.47,-10.03,0.59,-0.67,10.07,0.13,0.04,0.2,0.24
-10.02,0.62,-0.66,-10.03,0.59,-0.67,10.07,0.01,0.03,0.01,0.03
-9.87,0.55,-1.13,-10,0.58,-0.76,10.04,0.13,-0.04,-0.37,0.39
-9.94,0.23,-1.56,-9.99,0.51,-0.92,10.04,0.04,-0.28,-0.64,0.7
-9.79,0.47,-0.9,-9.95,0.5,-0.92,10,0.16,-0.04,0.02,0.16
-10.22,0.23,-0.31,-10,0.45,-0.8,10.04,-0.22,-0.22,0.48,0.57
-10.1,0.58,-0.27,-10.02,0.48,-0.69,10.06,-0.08,0.11,0.42,0.44
-10.18,0.62,-0.16,-10.05,0.51,-0.58,10.08,-0.13,0.12,0.43,0.46
-10.06,0.39,-0.27,-10.05,0.48,-0.52,10.08,-0.01,-0.09,0.25,0.27
-10.06,0.62,-0.31,-10.06,0.51,-0.48,10.08,-0.01,0.11,0.17,0.2
-10.02,0.7,-0.08,-10.05,0.55,-0.4,10.07,0.03,0.15,0.32,0.36
-10.1,0.58,-0.23,-10.06,0.56,-0.37,10.08,-0.04,0.03,0.13,0.14
-10.06,0.51,-0.16,-10.06,0.55,-0.32,10.08,0,-0.04,0.17,0.17
-10.1,0.51,0.19,-10.07,0.54,-0.22,10.09,-0.03,-0.03,0.42,0.42
-10.14,0.66,0.58,-10.08,0.56,-0.06,10.1,-0.06,0.1,0.64,0.65
-10.18,0.7,0.35,-10.1,0.59,0.02,10.12,-0.08,0.11,0.33,0.35
-9.91,0.94,0.47,-10.06,0.66,0.11,10.09,0.16,0.28,0.36,0.48
-10.18,0.66,0.08,-10.09,0.66,0.1,10.11,-0.09,0,-0.03,0.1
-9.83,0.66,0.51,-10.03,0.66,0.19,10.06,0.21,0,0.32,0.38
-10.14,0.86,0.08,-10.06,0.7,0.16,10.08,-0.08,0.16,-0.09,0.2
-10.1,0.66,-0.08,-10.06,0.69,0.12,10.09,-0.04,-0.03,-0.19,0.2
-10.22,0.43,0.08,-10.1,0.64,0.11,10.12,-0.12,-0.21,-0.03,0.25
-9.87,0.62,-0.43,-10.05,0.64,0,10.07,0.18,-0.01,-0.43,0.47
-9.91,0.58,-1.52,-10.02,0.63,-0.3,10.05,0.11,-0.04,-1.22,1.22
-10.02,0.62,-0.66,-10.02,0.63,-0.38,10.05,0,0,-0.29,0.29
-10.02,0.82,-0.78,-10.02,0.66,-0.46,10.05,0,0.15,-0.32,0.36
-10.14,0.43,-0.86,-10.05,0.62,-0.54,10.08,-0.09,-0.19,-0.32,0.38
-10.06,0.39,-0.35,-10.05,0.57,-0.5,10.08,-0.01,-0.18,0.15,0.24
-10.22,0.7,-0.94,-10.08,0.6,-0.59,10.12,-0.14,0.1,-0.35,0.39
-10.02,0.51,-0.98,-10.07,0.58,-0.66,10.11,0.05,-0.07,-0.31,0.32
-9.98,0.43,-0.98,-10.05,0.55,-0.73,10.09,0.07,-0.12,-0.25,0.28
-10.22,0.55,-0.58,-10.09,0.55,-0.7,10.13,-0.13,0,0.11,0.17
-10.14,0.58,-0.58,-10.1,0.56,-0.68,10.13,-0.04,0.03,0.09,0.1
-9.91,0.74,-0.86,-10.06,0.59,-0.71,10.1,0.15,0.15,-0.15,0.26
-10.06,0.55,-0.86,-10.06,0.58,-0.74,10.1,0,-0.04,-0.12,0.12
-9.59,0.78,1.09,-9.97,0.62,-0.37,9.99,0.37,0.16,1.47,1.52
-10.49,0.66,0.82,-10.07,0.63,-0.14,10.09,-0.42,0.03,0.95,1.04
-10.06,0.7,1.05,-10.07,0.65,0.1,10.09,0.01,0.06,0.95,0.95
-9.87,0.74,0.94,-10.03,0.66,0.27,10.05,0.16,0.08,0.67,0.69
-10.1,0.78,0.19,-10.04,0.69,0.25,10.07,-0.06,0.09,-0.06,0.12
-10.41,0.58,-0.47,-10.12,0.67,0.11,10.14,-0.3,-0.08,-0.58,0.65
-9.91,0.78,-1.17,-10.08,0.69,-0.15,10.1,0.17,0.09,-1.02,1.04
-9.94,0.7,-0.86,-10.05,0.69,-0.29,10.08,0.1,0.01,-0.57,0.58
-10.26,0.7,-0.35,-10.09,0.69,-0.3,10.12,-0.17,0.01,-0.05,0.17
-10.1,0.78,-0.43,-10.09,0.71,-0.33,10.12,-0.01,0.07,-0.1,0.12
-9.94,0.31,-0.47,-10.06,0.63,-0.35,10.09,0.12,-0.32,-0.11,0.36
-10.14,0.7,-0.9,-10.08,0.65,-0.46,10.11,-0.06,0.06,-0.43,0.44
-10.1,0.55,-0.19,-10.08,0.63,-0.41,10.11,-0.02,-0.08,0.21,0.23
-9.91,0.58,-0.35,-10.05,0.62,-0.4,10.07,0.14,-0.03,0.05,0.15
-9.98,0.82,-0.31,-10.03,0.66,-0.38,10.06,0.05,0.16,0.07,0.18
-10.06,0.74,-0.78,-10.04,0.67,-0.46,10.07,-0.02,0.07,-0.32,0.33
-10.02,0.86,-0.62,-10.04,0.71,-0.49,10.07,0.01,0.15,-0.13,0.2
-9.98,0.55,-0.04,-10.03,0.68,-0.4,10.06,0.04,-0.13,0.36,0.39
-10.22,0.7,-0.62,-10.06,0.68,-0.45,10.1,-0.15,0.02,-0.18,0.24
-10.06,0.55,-0.23,-10.06,0.66,-0.4,10.09,0,-0.11,0.17,0.2
-9.91,0.74,-0.23,-10.03,0.67,-0.37,10.06,0.13,0.07,0.14,0.2
-10.02,0.94,-0.78,-10.03,0.73,-0.45,10.07,0.01,0.21,-0.33,0.39
-9.91,0.74,-0.43,-10.01,0.73,-0.45,10.04,0.1,0.01,0.02,0.1
-10.1,0.9,-0.94,-10.02,0.76,-0.55,10.07,-0.08,0.13,-0.39,0.42
-10.18,0.62,-0.43,-10.06,0.73,-0.52,10.1,-0.12,-0.11,0.09,0.19
-9.91,0.7,0,-10.03,0.73,-0.42,10.06,0.12,-0.03,0.42,0.44
-10.22,0.62,-0.78,-10.06,0.71,-0.49,10.1,-0.15,-0.08,-0.29,0.34
-10.1,0.55,-0.16,-10.07,0.67,-0.42,10.1,-0.03,-0.13,0.27,0.3
-9.91,0.82,-0.08,-10.04,0.7,-0.35,10.07,0.13,0.12,0.28,0.33
-10.06,0.98,-0.66,-10.04,0.76,-0.42,10.08,-0.02,0.22,-0.25,0.33
-10.14,0.7,-0.86,-10.06,0.75,-0.5,10.1,-0.08,-0.04,-0.35,0.36
-10.14,0.58,-0.31,-10.08,0.71,-0.47,10.11,-0.06,-0.13,0.15,0.21
-9.98,0.47,-0.08,-10.06,0.67,-0.39,10.09,0.08,-0.2,0.31,0.38
-9.94,0.86,-0.55,-10.04,0.7,-0.42,10.07,0.09,0.15,-0.13,0.22
-9.91,0.82,-0.16,-10.01,0.73,-0.37,10.04,0.1,0.09,0.21,0.25
-10.1,0.62,-1.17,-10.03,0.71,-0.53,10.07,-0.07,-0.08,-0.64,0.65
-10.26,0.51,-0.43,-10.07,0.67,-0.51,10.11,-0.18,-0.16,0.08,0.26
-9.94,0.51,-0.16,-10.05,0.63,-0.44,10.08,0.1,-0.13,0.28,0.33
-9.87,0.66,-0.19,-10.01,0.64,-0.39,10.04,0.15,0.02,0.19,0.24
-10.06,0.94,-0.7,-10.02,0.7,-0.45,10.06,-0.04,0.24,-0.25,0.35
-10.22,0.55,-0.74,-10.06,0.67,-0.51,10.1,-0.16,-0.12,-0.23,0.31
-10.14,0.43,-0.35,-10.08,0.62,-0.48,10.11,-0.06,-0.19,0.13,0.24
-9.98,0.78,-0.04,-10.06,0.65,-0.39,10.09,0.07,0.13,0.35,0.38
-10.06,0.86,-0.7,-10.06,0.69,-0.45,10.09,0,0.16,-0.25,0.3
-9.94,0.39,-0.12,-10.04,0.63,-0.39,10.06,0.09,-0.24,0.27,0.37
-9.83,0.66,-0.35,-9.99,0.64,-0.38,10.02,0.17,0.02,0.03,0.17
-10.18,0.66,-0.35,-10.03,0.64,-0.37,10.06,-0.15,0.02,0.02,0.15
-10.22,0.78,-1.52,-10.07,0.67,-0.6,10.11,-0.15,0.11,-0.92,0.94
-9.94,0.78,-1.25,-10.04,0.69,-0.73,10.09,0.1,0.09,-0.52,0.53
-10.1,0.35,-0.58,-10.06,0.62,-0.7,10.1,-0.05,-0.27,0.12,0.3
-10.02,0.86,-0.98,-10.05,0.67,-0.76,10.1,0.03,0.19,-0.22,0.29
-10.18,0.66,-0.9,-10.07,0.67,-0.78,10.13,-0.1,-0.01,-0.11,0.15
-10.1,0.43,-0.58,-10.08,0.62,-0.74,10.13,-0.02,-0.19,0.16,0.25
-9.94,0.58,-0.7,-10.05,0.61,-0.74,10.1,0.11,-0.03,0.03,0.12
-10.06,0.9,-1.05,-10.05,0.67,-0.8,10.11,-0.01,0.23,-0.25,0.34
-10.18,0.51,-0.86,-10.08,0.64,-0.81,10.13,-0.1,-0.13,-0.05,0.17
-9.98,0.39,-0.19,-10.06,0.59,-0.69,10.1,0.08,-0.2,0.49,0.54
-9.91,0.78,-0.39,-10.03,0.63,-0.63,10.07,0.12,0.15,0.24,0.31
-9.83,0.74,-0.19,-9.99,0.65,-0.54,10.03,0.16,0.09,0.35,0.39
-10.65,0.7,0.47,-10.12,0.66,-0.34,10.15,-0.53,0.04,0.81,0.96
-9.91,0.86,0.16,-10.08,0.7,-0.24,10.11,0.17,0.16,0.4,0.46
-10.14,0.66,-0.47,-10.09,0.69,-0.29,10.12,-0.05,-0.03,-0.18,0.19
-10.26,0.66,-0.19,-10.12,0.69,-0.27,10.15,-0.13,-0.02,0.07,0.15
-10.06,0.51,0.16,-10.11,0.65,-0.18,10.13,0.05,-0.14,0.34,0.37
-9.94,0.82,-0.66,-10.08,0.68,-0.28,10.11,0.13,0.13,-0.38,0.43
-9.98,0.74,-1.01,-10.06,0.7,-0.43,10.09,0.08,0.05,-0.59,0.59
-9.98,0.62,-1.33,-10.04,0.68,-0.61,10.09,0.06,-0.06,-0.72,0.72
-10.18,0.23,-0.51,-10.07,0.59,-0.59,10.11,-0.11,-0.36,0.08,0.38
-10.14,0.74,-0.94,-10.08,0.62,-0.66,10.13,-0.06,0.12,-0.28,0.31
-10.14,0.47,-0.82,-10.1,0.59,-0.69,10.14,-0.04,-0.12,-0.13,0.18
-9.98,0.31,-0.58,-10.07,0.54,-0.67,10.11,0.09,-0.22,0.08,0.25
-9.94,0.82,-1.09,-10.05,0.59,-0.75,10.09,0.1,0.23,-0.34,0.42
-10.06,0.47,-0.94,-10.05,0.57,-0.79,10.1,-0.01,-0.1,-0.15,0.18
-9.91,0.7,-0.55,-10.02,0.59,-0.74,10.07,0.12,0.11,0.19,0.25
-10.06,0.9,-0.98,-10.03,0.65,-0.79,10.08,-0.03,0.24,-0.19,0.31
-10.14,0.55,-0.78,-10.05,0.63,-0.79,10.1,-0.09,-0.09,0.01,0.12
-10.02,0.35,-0.55,-10.05,0.58,-0.74,10.09,0.02,-0.23,0.19,0.3
-10.02,0.82,-0.39,-10.04,0.63,-0.67,10.08,0.02,0.19,0.28,0.34
-10.02,0.62,-1.17,-10.04,0.62,-0.77,10.09,0.01,0,-0.4,0.4
-9.98,0.58,0.08,-10.03,0.62,-0.6,10.06,0.04,-0.03,0.68,0.68
-10.3,0.35,0.47,-10.08,0.56,-0.39,10.1,-0.22,-0.21,0.85,0.91
-9.94,0.82,0.04,-10.05,0.61,-0.3,10.08,0.11,0.2,0.34,0.41
-9.94,0.78,-0.31,-10.03,0.65,-0.3,10.06,0.09,0.13,-0.01,0.16
-9.98,0.55,0.55,-10.02,0.63,-0.13,10.04,0.04,-0.08,0.68,0.69
-9.91,0.9,0.27,-10,0.68,-0.05,10.02,0.09,0.22,0.33,0.4
-10.02,0.82,-0.31,-10,0.71,-0.1,10.03,-0.02,0.11,-0.21,0.24
-9.94,0.58,-0.23,-9.99,0.68,-0.13,10.02,0.05,-0.1,-0.1,0.15
-10.18,0.35,-0.58,-10.03,0.62,-0.22,10.05,-0.15,-0.27,-0.36,0.48
-9.98,0.78,-1.37,-10.02,0.65,-0.45,10.05,0.04,0.13,-0.92,0.93
-10.06,0.39,-0.78,-10.03,0.6,-0.52,10.06,-0.03,-0.21,-0.26,0.34
-9.91,0.94,-0.82,-10,0.67,-0.58,10.04,0.1,0.27,-0.24,0.38
-10.18,0.55,-1.13,-10.04,0.64,-0.69,10.08,-0.14,-0.1,-0.44,0.47
-10.14,0.39,-0.39,-10.06,0.59,-0.63,10.1,-0.08,-0.2,0.24,0.32
-9.91,0.66,-0.47,-10.03,0.61,-0.6,10.06,0.12,0.06,0.13,0.19
-9.94,0.82,-0.74,-10.01,0.65,-0.62,10.05,0.07,0.17,-0.12,0.22
-10.1,0.66,-0.55,-10.03,0.65,-0.61,10.07,-0.07,0.01,0.06,0.1
-10.14,0.23,-0.39,-10.05,0.57,-0.57,10.08,-0.09,-0.33,0.18,0.39
-10.06,0.62,-1.05,-10.05,0.58,-0.66,10.09,-0.01,0.04,-0.39,0.39
-10.14,0.62,-0.58,-10.07,0.59,-0.65,10.11,-0.07,0.04,0.06,0.1
-9.75,0.62,0.9,-10.01,0.6,-0.34,10.03,0.26,0.03,1.24,1.26
-10.37,0.66,0.43,-10.08,0.61,-0.18,10.1,-0.29,0.05,0.61,0.68
-9.94,0.43,0.39,-10.05,0.57,-0.07,10.07,0.11,-0.14,0.46,0.49
-9.91,0.58,0.74,-10.02,0.58,0.09,10.04,0.12,0.01,0.65,0.66
-9.98,0.78,0.12,-10.02,0.62,0.1,10.04,0.03,0.16,0.02,0.17
-10.14,0.39,-0.08,-10.04,0.57,0.06,10.06,-0.1,-0.18,-0.14,0.25
-10.1,0.82,-0.86,-10.05,0.62,-0.12,10.07,-0.05,0.2,-0.74,0.76
-10.1,0.62,-1.05,-10.06,0.62,-0.31,10.09,-0.04,0,-0.74,0.75
-9.71,0.55,-0.55,-9.99,0.61,-0.36,10.02,0.28,-0.06,-0.19,0.34
-9.98,0.74,-1.01,-9.99,0.63,-0.49,10.02,0.01,0.11,-0.53,0.54
-10.02,0.66,-1.01,-10,0.64,-0.59,10.03,-0.03,0.02,-0.42,0.42
-10.02,0.7,-1.01,-10,0.65,-0.68,10.05,-0.02,0.05,-0.34,0.34
-9.91,0.86,-0.39,-9.98,0.69,-0.62,10.03,0.08,0.17,0.23,0.29
-10.06,0.74,-1.21,-10,0.7,-0.74,10.05,-0.06,0.04,-0.47,0.48
-10.14,0.55,0,-10.03,0.67,-0.59,10.07,-0.11,-0.13,0.59,0.61
-10.49,0.51,0.31,-10.12,0.64,-0.41,10.15,-0.37,-0.13,0.72,0.82
-9.79,0.82,0.16,-10.05,0.67,-0.3,10.08,0.26,0.14,0.45,0.54
-10.02,0.82,-0.12,-10.05,0.7,-0.26,10.08,0.02,0.12,0.14,0.19
-10.06,0.98,-0.35,-10.05,0.76,-0.28,10.08,-0.01,0.22,-0.07,0.23
-10.02,0.82,-0.74,-10.04,0.77,-0.37,10.08,0.02,0.05,-0.37,0.37
-9.94,0.51,0,-10.02,0.72,-0.3,10.05,0.08,-0.21,0.3,0.37
-9.94,0.47,0.04,-10.01,0.67,-0.23,10.03,0.06,-0.2,0.27,0.34
-10.02,0.7,-0.58,-10.01,0.67,-0.3,10.04,-0.01,0.03,-0.28,0.29
-10.14,0.47,-0.39,-10.04,0.63,-0.32,10.06,-0.1,-0.17,-0.07,0.21
-10.02,0.47,-0.08,-10.03,0.6,-0.27,10.06,0.01,-0.13,0.19,0.23
-10.02,0.7,-0.55,-10.03,0.62,-0.33,10.06,0.01,0.08,-0.22,0.24
-10.14,0.43,-0.62,-10.05,0.58,-0.39,10.08,-0.09,-0.15,-0.24,0.3
-9.94,0.62,-0.19,-10.03,0.59,-0.35,10.06,0.09,0.03,0.15,0.18
-9.94,0.78,-0.27,-10.01,0.63,-0.33,10.04,0.07,0.15,0.06,0.18
-10.1,0.82,-0.58,-10.03,0.67,-0.38,10.06,-0.07,0.15,-0.2,0.26
-10.14,0.62,-0.74,-10.05,0.66,-0.45,10.09,-0.09,-0.03,-0.29,0.3
-10.14,0.51,-0.12,-10.07,0.63,-0.39,10.1,-0.07,-0.12,0.27,0.3
-9.79,0.58,0,-10.01,0.62,-0.31,10.04,0.23,-0.03,0.31,0.38
-10.06,0.74,-0.98,-10.02,0.64,-0.44,10.05,-0.04,0.1,-0.53,0.54
-10.14,0.43,-0.39,-10.05,0.6,-0.43,10.07,-0.09,-0.17,0.04,0.2
-9.98,0.47,-0.04,-10.03,0.57,-0.35,10.06,0.05,-0.11,0.31,0.34
-9.91,0.66,-0.23,-10.01,0.59,-0.33,10.03,0.1,0.07,0.1,0.16
-9.98,0.47,0.23,-10,0.57,-0.22,10.02,0.02,-0.1,0.45,0.46
-10.1,0.39,-0.16,-10.02,0.53,-0.2,10.04,-0.08,-0.14,0.05,0.17
-9.87,0.66,-0.31,-9.99,0.56,-0.23,10.01,0.13,0.11,-0.09,0.18
-9.94,0.66,-0.04,-9.98,0.58,-0.19,10,0.04,0.08,0.15,0.18
-10.14,0.78,-0.43,-10.01,0.62,-0.24,10.04,-0.13,0.16,-0.19,0.28
-10.14,0.58,-0.82,-10.04,0.61,-0.35,10.06,-0.1,-0.03,-0.47,0.48
-9.94,0.82,-0.74,-10.02,0.65,-0.43,10.05,0.08,0.17,-0.31,0.36
-10.14,0.7,-1.21,-10.04,0.66,-0.59,10.08,-0.1,0.04,-0.62,0.63
-9.94,0.51,-0.08,-10.02,0.63,-0.48,10.06,0.08,-0.13,0.41,0.43
-10.18,0.51,-0.58,-10.06,0.61,-0.5,10.09,-0.12,-0.1,-0.08,0.18
-10.22,0.55,-0.74,-10.09,0.59,-0.55,10.12,-0.13,-0.05,-0.19,0.23
-9.98,0.51,-0.43,-10.07,0.58,-0.53,10.1,0.08,-0.07,0.1,0.15
-10.02,0.86,-0.7,-10.06,0.63,-0.56,10.09,0.04,0.22,-0.14,0.27
-10.02,0.55,-0.78,-10.05,0.62,-0.61,10.09,0.03,-0.07,-0.17,0.19
-10.1,0.35,-0.16,-10.06,0.56,-0.52,10.09,-0.04,-0.21,0.36,0.42
-9.94,0.74,-0.27,-10.04,0.6,-0.47,10.07,0.09,0.14,0.19,0.26
-9.94,0.74,0.08,-10.02,0.63,-0.36,10.05,0.07,0.11,0.44,0.46
-10.22,0.58,-1.01,-10.06,0.62,-0.49,10.09,-0.16,-0.03,-0.52,0.55
-10.06,0.7,-0.82,-10.06,0.64,-0.56,10.09,0,0.07,-0.26,0.27
-9.87,0.78,0,-10.02,0.66,-0.44,10.05,0.15,0.12,0.44,0.48
-10.1,0.47,-0.51,-10.04,0.62,-0.46,10.07,-0.06,-0.16,-0.05,0.18
-10.06,0.43,-0.19,-10.04,0.59,-0.4,10.07,-0.02,-0.16,0.21,0.26
-10.1,0.62,-0.78,-10.05,0.59,-0.48,10.08,-0.05,0.03,-0.3,0.31
-10.26,0.51,-0.7,-10.09,0.58,-0.52,10.12,-0.16,-0.07,-0.18,0.25
-10.06,0.55,-0.35,-10.09,0.57,-0.49,10.12,0.03,-0.02,0.14,0.14
-9.87,0.66,-0.31,-10.04,0.59,-0.45,10.07,0.18,0.07,0.14,0.24
-10.06,0.62,-0.7,-10.05,0.6,-0.5,10.08,-0.01,0.03,-0.2,0.2
-10.14,0.47,-0.43,-10.07,0.57,-0.49,10.09,-0.07,-0.1,0.06,0.14
-9.91,0.66,-0.19,-10.03,0.59,-0.43,10.06,0.13,0.07,0.23,0.28
-10.02,0.55,-0.16,-10.03,0.58,-0.38,10.06,0.01,-0.03,0.22,0.22
-9.79,0.82,-0.39,-9.98,0.63,-0.38,10.01,0.19,0.19,-0.01,0.27
-10.37,0.31,-0.66,-10.06,0.56,-0.44,10.09,-0.31,-0.25,-0.23,0.46
-9.91,0.58,-0.7,-10.03,0.57,-0.49,10.06,0.12,0.02,-0.21,0.25
-10.06,0.62,-1.05,-10.04,0.58,-0.6,10.07,-0.03,0.04,-0.45,0.45
-10.14,0.55,-1.21,-10.06,0.57,-0.72,10.1,-0.08,-0.03,-0.49,0.49
-10.1,0.47,-1.17,-10.07,0.55,-0.81,10.11,-0.03,-0.08,-0.36,0.37
-9.98,0.43,-1.4,-10.05,0.53,-0.93,10.11,0.07,-0.1,-0.47,0.49
-10.06,0.31,-0.98,-10.05,0.48,-0.94,10.11,-0.01,-0.17,-0.04,0.18
-9.94,0.19,-1.99,-10.03,0.43,-1.15,10.11,0.09,-0.23,-0.84,0.88
-9.98,0.47,-1.37,-10.02,0.43,-1.19,10.1,0.04,0.03,-0.17,0.18
-9.91,0.55,-0.78,-10,0.46,-1.11,10.07,0.09,0.09,0.33,0.35
-10.18,0.47,-0.43,-10.03,0.46,-0.97,10.09,-0.14,0.01,0.54,0.56
-9.87,0.51,-0.82,-10,0.47,-0.94,10.06,0.13,0.04,0.12,0.19
-10.1,0.66,-0.86,-10.02,0.51,-0.93,10.08,-0.08,0.16,0.07,0.19
-10.22,0.62,-0.51,-10.06,0.53,-0.84,10.11,-0.16,0.09,0.34,0.38
-9.94,0.35,-0.47,-10.04,0.49,-0.77,10.08,0.09,-0.14,0.3,0.34
-9.87,0.47,-0.04,-10,0.49,-0.62,10.03,0.14,-0.02,0.58,0.6
-10.1,0.74,-0.74,-10.02,0.54,-0.65,10.06,-0.08,0.2,-0.1,0.24
-9.87,0.55,-0.74,-9.99,0.54,-0.66,10.03,0.12,0,-0.08,0.15
-10.22,0.62,-0.9,-10.04,0.56,-0.71,10.08,-0.18,0.07,-0.19,0.27
-10.14,0.43,-0.66,-10.06,0.53,-0.7,10.1,-0.08,-0.1,0.04,0.14
-10.02,0.39,-0.51,-10.05,0.5,-0.66,10.09,0.03,-0.11,0.16,0.19
-9.98,0.66,-0.62,-10.04,0.54,-0.65,10.07,0.05,0.13,0.03,0.14
-10.3,0.47,-0.27,-10.09,0.52,-0.58,10.12,-0.21,-0.05,0.31,0.37
-9.87,0.51,-0.58,-10.04,0.52,-0.58,10.07,0.18,-0.01,-0.01,0.18
-9.91,0.62,0.04,-10.02,0.54,-0.46,10.04,0.11,0.08,0.5,0.51
-10.45,0.58,0.08,-10.1,0.55,-0.35,10.12,-0.35,0.04,0.43,0.55
-9.75,0.51,0.51,-10.03,0.54,-0.18,10.05,0.28,-0.03,0.68,0.74
-10.14,0.51,-0.39,-10.05,0.53,-0.22,10.07,-0.09,-0.03,-0.17,0.19
-10.14,0.55,-0.51,-10.07,0.54,-0.28,10.09,-0.07,0.01,-0.23,0.24
-9.98,0.35,-0.7,-10.05,0.5,-0.36,10.07,0.07,-0.15,-0.34,0.38
-9.94,0.74,-0.55,-10.03,0.55,-0.4,10.06,0.09,0.19,-0.15,0.26
-10.53,0.51,-0.51,-10.13,0.54,-0.42,10.15,-0.4,-0.03,-0.09,0.41
-9.91,0.55,-0.78,-10.09,0.54,-0.49,10.11,0.18,0.01,-0.29,0.34
-9.87,0.35,-0.35,-10.04,0.5,-0.46,10.07,0.18,-0.15,0.11,0.26
-10.49,0.47,-0.39,-10.13,0.5,-0.45,10.15,-0.36,-0.03,0.06,0.36
-9.91,0.43,-0.19,-10.09,0.48,-0.4,10.11,0.18,-0.05,0.2,0.28
-10.1,0.35,-0.51,-10.09,0.46,-0.42,10.11,-0.01,-0.11,-0.09,0.14
-10.18,0.55,-0.58,-10.11,0.47,-0.45,10.13,-0.07,0.07,-0.13,0.17
-9.91,0.35,-0.19,-10.07,0.45,-0.4,10.09,0.16,-0.1,0.21,0.28
-10.26,0.35,-0.35,-10.11,0.43,-0.39,10.12,-0.15,-0.08,0.04,0.18
-9.98,0.27,-0.31,-10.08,0.4,-0.38,10.1,0.1,-0.13,0.06,0.17
-9.91,0.47,-0.08,-10.05,0.41,-0.32,10.06,0.14,0.06,0.24,0.28
-10.3,0.19,-0.27,-10.1,0.37,-0.31,10.11,-0.2,-0.17,0.03,0.27
-10.14,0.55,-0.74,-10.1,0.4,-0.39,10.12,-0.04,0.14,-0.35,0.38
-10.06,0.31,-0.39,-10.1,0.39,-0.39,10.11,0.03,-0.07,0,0.08
-10.06,0.86,-0.39,-10.09,0.48,-0.39,10.11,0.03,0.38,0,0.38
-10.02,0.47,-0.66,-10.08,0.48,-0.45,10.1,0.05,-0.01,-0.22,0.22
-10.06,0.78,-0.31,-10.07,0.54,-0.42,10.1,0.01,0.24,0.11,0.26
-10.26,0.51,-0.62,-10.11,0.53,-0.46,10.13,-0.15,-0.03,-0.16,0.22
-9.94,0.31,-0.27,-10.08,0.49,-0.42,10.1,0.13,-0.18,0.15,0.27
-9.98,0.58,-0.51,-10.06,0.51,-0.44,10.08,0.07,0.08,-0.07,0.13
-10.3,0.23,-0.23,-10.11,0.45,-0.4,10.12,-0.19,-0.22,0.16,0.33
-9.71,0.66,-0.39,-10.03,0.49,-0.4,10.05,0.32,0.17,0.01,0.36
-10.22,0.62,-0.94,-10.07,0.52,-0.5,10.09,-0.15,0.1,-0.43,0.47
-10.1,0.31,-0.51,-10.07,0.48,-0.51,10.1,-0.03,-0.17,0,0.17
-10.02,0.55,-0.31,-10.06,0.49,-0.47,10.09,0.04,0.05,0.15,0.17
-10.14,0.58,-0.55,-10.08,0.51,-0.48,10.1,-0.06,0.07,-0.06,0.12
-9.87,0.23,-0.12,-10.04,0.46,-0.41,10.05,0.17,-0.22,0.29,0.4
-9.91,0.94,-0.55,-10.01,0.55,-0.44,10.03,0.1,0.38,-0.11,0.41
-10.22,0.39,-0.19,-10.05,0.52,-0.39,10.07,-0.17,-0.13,0.19,0.29
-9.71,0.58,-0.47,-9.98,0.53,-0.4,10.01,0.27,0.05,-0.06,0.28
-9.98,0.86,-0.9,-9.98,0.6,-0.5,10.01,0,0.26,-0.39,0.47
-10.41,0.47,-0.7,-10.07,0.57,-0.54,10.1,-0.34,-0.1,-0.16,0.39
-10.02,0.62,-0.55,-10.06,0.58,-0.54,10.09,0.04,0.04,0,0.06
-10.18,0.39,-0.82,-10.08,0.54,-0.6,10.12,-0.1,-0.15,-0.22,0.29
-10.18,0.31,-0.51,-10.1,0.5,-0.58,10.13,-0.08,-0.19,0.07,0.21
-9.79,0.43,-0.35,-10.04,0.48,-0.53,10.07,0.25,-0.05,0.18,0.32
-9.94,0.94,-0.51,-10.02,0.57,-0.53,10.05,0.08,0.36,0.02,0.37
-9.79,0.43,0.31,-9.97,0.55,-0.36,10,0.19,-0.12,0.67,0.71
-10.22,0.55,0.31,-10.02,0.55,-0.23,10.04,-0.19,0,0.54,0.57
-10.37,0.47,-0.51,-10.09,0.53,-0.28,10.11,-0.28,-0.06,-0.22,0.36
-9.83,0.31,-0.51,-10.04,0.49,-0.33,10.06,0.21,-0.17,-0.18,0.33
-9.98,0.43,-0.43,-10.03,0.47,-0.35,10.05,0.05,-0.05,-0.08,0.1
-10.3,0.7,-0.43,-10.08,0.52,-0.36,10.1,-0.21,0.18,-0.07,0.29
-9.91,0.62,-0.98,-10.05,0.54,-0.49,10.07,0.14,0.08,-0.49,0.52
-10.06,0.31,-0.78,-10.05,0.5,-0.54,10.08,-0.01,-0.18,-0.24,0.3
-10.22,0.19,-0.16,-10.08,0.44,-0.47,10.1,-0.13,-0.24,0.31,0.42
-10.02,0.62,-0.7,-10.07,0.47,-0.51,10.1,0.05,0.15,-0.19,0.25
-9.94,0.9,-0.58,-10.05,0.56,-0.53,10.08,0.1,0.34,-0.06,0.36
-10.06,0.35,-0.12,-10.05,0.52,-0.45,10.07,-0.01,-0.17,0.33,0.37
-10.1,0.7,-0.78,-10.06,0.55,-0.51,10.09,-0.04,0.15,-0.27,0.31
-10.14,0.39,-0.78,-10.08,0.52,-0.57,10.11,-0.06,-0.13,-0.21,0.26
-10.02,0.35,-0.27,-10.07,0.49,-0.51,10.09,0.04,-0.14,0.23,0.27
-9.87,0.31,-0.04,-10.03,0.45,-0.41,10.04,0.16,-0.14,0.37,0.43
-10.1,0.66,-0.86,-10.04,0.49,-0.5,10.07,-0.06,0.17,-0.36,0.4
-10.14,0.35,-0.55,-10.06,0.47,-0.51,10.08,-0.08,-0.11,-0.03,0.14
-10.18,0.19,-0.86,-10.08,0.41,-0.58,10.11,-0.09,-0.22,-0.28,0.36
-10.18,0.66,-1.56,-10.1,0.46,-0.78,10.14,-0.08,0.2,-0.78,0.81
-9.87,0.47,-1.05,-10.06,0.46,-0.83,10.1,0.19,0.01,-0.22,0.29
-9.87,0.27,-1.09,-10.02,0.42,-0.88,10.07,0.15,-0.15,-0.21,0.3
-9.98,0.31,-0.66,-10.01,0.4,-0.84,10.05,0.03,-0.09,0.18,0.2
-10.34,0.35,-0.55,-10.08,0.39,-0.78,10.11,-0.26,-0.04,0.23,0.35
-10.18,0.43,-1.01,-10.1,0.4,-0.83,10.14,-0.08,0.03,-0.19,0.21
-9.94,0.35,-0.62,-10.07,0.39,-0.79,10.1,0.12,-0.04,0.16,0.21
-10.18,0.47,-0.19,-10.09,0.41,-0.67,10.12,-0.09,0.06,0.47,0.49
-10.1,0.31,-0.78,-10.09,0.39,-0.69,10.12,-0.01,-0.07,-0.09,0.12
-9.87,0.39,-0.62,-10.05,0.39,-0.68,10.08,0.18,0,0.05,0.19
-10.3,0.23,-0.31,-10.1,0.36,-0.6,10.12,-0.2,-0.12,0.29,0.37
-10.02,0.31,-0.27,-10.08,0.35,-0.54,10.1,0.06,-0.04,0.27,0.27
-10.14,0.31,-0.51,-10.09,0.34,-0.53,10.11,-0.05,-0.03,0.02,0.06
-9.94,0.51,-0.27,-10.06,0.37,-0.48,10.08,0.12,0.13,0.21,0.27
-10.18,0.55,0.08,-10.09,0.41,-0.37,10.1,-0.09,0.14,0.45,0.48
-9.98,0.74,0.08,-10.07,0.47,-0.28,10.08,0.08,0.27,0.36,0.45
-10.22,0.23,-0.19,-10.1,0.43,-0.26,10.11,-0.12,-0.19,0.07,0.24
-9.83,0.43,-0.43,-10.04,0.43,-0.3,10.06,0.21,0,-0.13,0.25
-10.37,0.23,0.16,-10.11,0.39,-0.21,10.12,-0.26,-0.15,0.36,0.47
-10.26,0.35,-0.12,-10.14,0.38,-0.19,10.15,-0.12,-0.03,0.07,0.14
-9.79,0.23,0.31,-10.07,0.35,-0.09,10.08,0.28,-0.12,0.4,0.5
-10.26,0.27,-0.23,-10.11,0.34,-0.12,10.11,-0.15,-0.06,-0.12,0.2
-10.18,0.66,0.16,-10.12,0.4,-0.06,10.13,-0.06,0.26,0.22,0.35
-9.83,0.62,-0.08,-10.06,0.45,-0.07,10.07,0.23,0.18,-0.01,0.29
-10.02,0.31,-0.12,-10.05,0.42,-0.08,10.06,0.03,-0.11,-0.04,0.12
-10.02,0.19,-0.23,-10.05,0.37,-0.11,10.06,0.03,-0.18,-0.13,0.22
-10.1,0.43,-0.82,-10.06,0.39,-0.25,10.07,-0.04,0.04,-0.57,0.57
-9.94,0.16,-0.58,-10.04,0.34,-0.32,10.05,0.09,-0.18,-0.27,0.34
-9.94,0.43,-0.58,-10.02,0.36,-0.37,10.03,0.07,0.07,-0.21,0.24
-10.06,0.47,-1.01,-10.03,0.38,-0.5,10.05,-0.04,0.09,-0.51,0.52
-10.18,0.08,-1.05,-10.06,0.32,-0.61,10.08,-0.12,-0.24,-0.44,0.52
-10.06,0.04,-0.74,-10.06,0.26,-0.64,10.08,0,-0.22,-0.1,0.25
-10.14,0.23,-0.94,-10.07,0.26,-0.7,10.1,-0.07,-0.02,-0.24,0.25
-10.14,0.16,-0.66,-10.09,0.24,-0.69,10.11,-0.05,-0.08,0.03,0.1
-9.94,0.12,-0.78,-10.06,0.21,-0.71,10.09,0.11,-0.1,-0.07,0.17
-9.98,0.51,-1.05,-10.04,0.27,-0.78,10.08,0.06,0.24,-0.28,0.37
-10.14,0.27,-0.66,-10.06,0.27,-0.75,10.1,-0.08,0,0.09,0.12
-10.02,0.16,-1.29,-10.06,0.25,-0.86,10.1,0.03,-0.09,-0.43,0.44
-10.14,0.19,-0.9,-10.07,0.24,-0.87,10.11,-0.07,-0.04,-0.03,0.09
-10.1,0.12,-0.78,-10.08,0.21,-0.85,10.12,-0.02,-0.1,0.07,0.12
-10.26,0.55,-0.78,-10.11,0.28,-0.84,10.15,-0.14,0.27,0.06,0.31
-10.41,0.08,-1.37,-10.17,0.24,-0.94,10.22,-0.24,-0.16,-0.42,0.51
-10.18,0.04,-1.33,-10.17,0.2,-1.02,10.23,0,-0.16,-0.31,0.35
-9.71,0.39,-1.29,-10.08,0.24,-1.07,10.14,0.37,0.15,-0.21,0.45
-9.94,0.43,-1.21,-10.05,0.28,-1.1,10.12,0.11,0.15,-0.11,0.22
-10.37,0.39,-0.51,-10.12,0.3,-0.98,10.17,-0.26,0.09,0.47,0.55
-10.1,0.08,-0.51,-10.11,0.25,-0.89,10.16,0.01,-0.18,0.38,0.42
-10.02,0.39,-0.9,-10.1,0.28,-0.89,10.14,0.07,0.11,-0.01,0.13
-9.87,0.35,-0.51,-10.05,0.3,-0.81,10.09,0.18,0.06,0.31,0.36
-10.14,0.35,-0.08,-10.07,0.31,-0.67,10.1,-0.07,0.04,0.59,0.59
-9.91,0.16,-0.78,-10.04,0.28,-0.69,10.06,0.13,-0.12,-0.09,0.2
-10.26,0.31,-0.35,-10.08,0.28,-0.62,10.1,-0.18,0.03,0.27,0.32
-10.34,0.47,-0.78,-10.13,0.32,-0.65,10.16,-0.2,0.15,-0.13,0.28
-9.87,0.23,-1.17,-10.08,0.3,-0.76,10.11,0.21,-0.07,-0.41,0.47
-10.1,0.55,-0.27,-10.08,0.35,-0.66,10.11,-0.02,0.19,0.39,0.43
-10.06,0.39,-0.31,-10.08,0.36,-0.59,10.1,0.02,0.03,0.28,0.28
-10.02,0.23,-1.6,-10.07,0.33,-0.79,10.1,0.04,-0.1,-0.81,0.81
-10.06,0.31,-1.05,-10.07,0.33,-0.84,10.11,0,-0.02,-0.21,0.21
-9.87,0.47,-2.26,-10.03,0.36,-1.13,10.1,0.16,0.11,-1.13,1.15
-10.26,0.43,-1.29,-10.07,0.37,-1.16,10.15,-0.18,0.06,-0.13,0.23
-9.98,0.35,-0.43,-10.05,0.37,-1.01,10.11,0.07,-0.02,0.58,0.59
-10.26,0.51,-1.05,-10.1,0.4,-1.02,10.15,-0.16,0.11,-0.03,0.2
-10.34,0.35,-0.58,-10.14,0.39,-0.93,10.19,-0.19,-0.04,0.35,0.4
-10.06,0.35,-0.39,-10.13,0.38,-0.83,10.17,0.07,-0.03,0.44,0.44
-10.26,0.31,-0.39,-10.15,0.37,-0.74,10.19,-0.1,-0.05,0.35,0.37
-9.83,0.7,-0.35,-10.09,0.43,-0.66,10.12,0.26,0.27,0.31,0.49
-9.79,0.39,-0.94,-10.03,0.42,-0.72,10.06,0.24,-0.03,-0.22,0.33
-10.3,0.55,-0.31,-10.08,0.45,-0.64,10.11,-0.21,0.1,0.32,0.4
-10.02,0.35,-0.62,-10.07,0.43,-0.63,10.1,0.05,-0.08,0.01,0.09
-10.02,0.43,-1.13,-10.06,0.43,-0.73,10.1,0.04,0,-0.4,0.4
-10.3,0.08,-0.66,-10.11,0.36,-0.72,10.14,-0.19,-0.28,0.06,0.34
-9.91,0.31,-1.48,-10.07,0.35,-0.87,10.11,0.16,-0.04,-0.61,0.63
-10.18,0.58,-0.86,-10.09,0.4,-0.87,10.13,-0.09,0.19,0.01,0.21
-9.98,0.7,-0.31,-10.07,0.46,-0.76,10.11,0.08,0.24,0.45,0.51
-10.14,0.58,-0.23,-10.08,0.48,-0.65,10.12,-0.06,0.1,0.42,0.43
-10.06,0.55,-0.62,-10.08,0.5,-0.65,10.11,0.02,0.05,0.02,0.06
-9.83,0.39,0.19,-10.03,0.47,-0.48,10.05,0.2,-0.08,0.67,0.71
-10.06,0.35,-0.98,-10.04,0.45,-0.58,10.06,-0.03,-0.1,-0.4,0.41
-10.26,0.31,-0.47,-10.08,0.42,-0.56,10.1,-0.18,-0.11,0.09,0.23
-9.87,0.51,0.04,-10.04,0.44,-0.44,10.06,0.17,0.07,0.48,0.51
-9.98,0.47,-0.51,-10.03,0.44,-0.45,10.05,0.04,0.02,-0.06,0.07
-10.02,0.58,0.04,-10.03,0.47,-0.35,10.04,0,0.11,0.39,0.41
-9.91,0.23,-0.35,-10,0.43,-0.35,10.02,0.1,-0.19,0,0.21
-10.26,0.43,-0.27,-10.05,0.43,-0.34,10.07,-0.2,0,0.06,0.21
-10.18,0.23,0.19,-10.08,0.39,-0.23,10.09,-0.1,-0.15,0.43,0.46
-9.98,0.55,-0.27,-10.06,0.42,-0.24,10.07,0.08,0.13,-0.03,0.15
-9.59,0.66,-0.31,-9.97,0.47,-0.25,9.98,0.37,0.19,-0.06,0.42
-9.94,0.19,-0.31,-9.96,0.41,-0.27,9.97,0.02,-0.22,-0.05,0.22
-10.14,0.23,-0.19,-10,0.38,-0.25,10.01,-0.14,-0.14,0.06,0.21
-10.26,0.55,-0.51,-10.05,0.41,-0.3,10.06,-0.21,0.13,-0.2,0.32
-9.83,0.58,-0.31,-10.01,0.45,-0.3,10.02,0.18,0.14,-0.01,0.23
-10.06,0.43,-0.47,-10.02,0.44,-0.34,10.03,-0.05,-0.01,-0.13,0.14
-9.75,0.55,-0.51,-9.96,0.46,-0.37,9.98,0.21,0.08,-0.14,0.27
-10.3,0.43,-0.27,-10.03,0.46,-0.35,10.05,-0.27,-0.03,0.08,0.28
-10.06,0.35,-0.78,-10.04,0.44,-0.44,10.06,-0.03,-0.08,-0.34,0.35
-9.44,0.58,-1.29,-9.92,0.47,-0.61,9.95,0.48,0.12,-0.68,0.84
-9.87,0.39,-1.13,-9.91,0.45,-0.71,9.94,0.04,-0.06,-0.42,0.43
-10.22,0.31,-0.78,-9.97,0.42,-0.73,10,-0.25,-0.11,-0.05,0.28
-10.37,0.39,-1.29,-10.05,0.42,-0.84,10.09,-0.32,-0.03,-0.45,0.55
-10.02,0.51,-0.43,-10.04,0.43,-0.76,10.08,0.02,0.07,0.33,0.34
-9.98,0.58,-1.09,-10.03,0.46,-0.82,10.08,0.05,0.12,-0.27,0.3
-9.94,0.7,-1.05,-10.01,0.51,-0.87,10.07,0.07,0.19,-0.18,0.27
-10.06,0.16,-0.35,-10.02,0.44,-0.77,10.06,-0.04,-0.28,0.41,0.5
-10.06,0.39,-0.51,-10.03,0.43,-0.71,10.07,-0.03,-0.04,0.21,0.21
-9.87,0.39,-0.39,-10,0.42,-0.65,10.03,0.13,-0.03,0.26,0.29
-9.63,0.19,-0.27,-9.93,0.38,-0.57,9.95,0.29,-0.18,0.3,0.46
-10.02,0.16,-0.47,-9.95,0.33,-0.55,9.97,-0.08,-0.18,0.08,0.21
-10.53,0.08,-0.58,-10.06,0.28,-0.56,10.08,-0.47,-0.2,-0.03,0.51
-10.02,-0.16,-0.47,-10.05,0.19,-0.54,10.07,0.03,-0.35,0.07,0.36
-9.98,0.19,-0.39,-10.04,0.19,-0.51,10.06,0.06,0,0.12,0.13
-10.26,0.12,-0.7,-10.08,0.18,-0.55,10.1,-0.17,-0.06,-0.15,0.24
-10.22,0.27,-0.39,-10.11,0.2,-0.52,10.13,-0.11,0.08,0.13,0.18
-10.3,0.12,-0.62,-10.15,0.18,-0.54,10.16,-0.15,-0.06,-0.09,0.18
-10.18,0.19,-0.62,-10.15,0.18,-0.56,10.17,-0.03,0.01,-0.07,0.07
-9.4,-0.08,-0.7,-10,0.13,-0.58,10.02,0.6,-0.21,-0.12,0.65
-10.61,0.51,-0.98,-10.12,0.21,-0.66,10.15,-0.48,0.3,-0.31,0.65
-9.75,0.19,-1.25,-10.05,0.2,-0.78,10.08,0.3,-0.01,-0.47,0.56
-9.87,0.12,-0.86,-10.01,0.19,-0.8,10.05,0.15,-0.07,-0.06,0.17
-9.98,0.04,-0.43,-10.01,0.16,-0.72,10.03,0.02,-0.12,0.29,0.32
-10.8,-0.16,-0.51,-10.17,0.09,-0.68,10.19,-0.64,-0.25,0.17,0.71
-9.05,0.16,-0.43,-9.94,0.11,-0.63,9.96,0.89,0.05,0.2,0.92
-10.37,0.94,-0.27,-10.03,0.27,-0.56,10.05,-0.35,0.66,0.28,0.8
-9.67,0.74,-0.35,-9.96,0.37,-0.52,9.98,0.29,0.37,0.17,0.5
-10.18,0.62,-0.9,-10,0.42,-0.59,10.03,-0.18,0.21,-0.3,0.41
-10.26,0.19,-1.21,-10.05,0.37,-0.72,10.09,-0.2,-0.18,-0.49,0.56
-9.98,0.51,-1.33,-10.04,0.4,-0.84,10.08,0.06,0.11,-0.49,0.5
-9.71,0.82,-0.51,-9.97,0.48,-0.77,10.01,0.26,0.34,0.26,0.5
-10.49,0.62,0.08,-10.08,0.51,-0.6,10.11,-0.41,0.11,0.68,0.8
-9.98,0.86,-0.04,-10.06,0.58,-0.49,10.09,0.07,0.28,0.45,0.53
-10.26,0.55,-0.55,-10.1,0.57,-0.5,10.13,-0.16,-0.03,-0.05,0.17
-9.75,0.55,-1.21,-10.03,0.57,-0.64,10.07,0.28,-0.02,-0.57,0.63
-9.98,0.82,-1.05,-10.02,0.62,-0.72,10.06,0.04,0.2,-0.33,0.39
-10.45,1.09,-1.25,-10.11,0.71,-0.83,10.17,-0.35,0.38,-0.42,0.66
-9.83,0.19,-0.39,-10.05,0.61,-0.74,10.1,0.22,-0.41,0.35,0.59
-11.11,0.43,-0.62,-10.26,0.57,-0.72,10.3,-0.85,-0.14,0.09,0.87
-10.45,-0.74,-1.29,-10.3,0.31,-0.83,10.34,-0.15,-1.05,-0.46,1.16
-10.76,0.35,-1.09,-10.39,0.32,-0.88,10.44,-0.37,0.03,-0.21,0.43
-9.75,0.23,-1.83,-10.26,0.3,-1.07,10.33,0.51,-0.07,-0.76,0.92
-10.8,0.27,-0.74,-10.37,0.3,-1.01,10.43,-0.43,-0.02,0.27,0.51
-10.73,0.12,-0.86,-10.44,0.26,-0.98,10.49,-0.28,-0.14,0.12,0.34
-9.94,-0.62,-0.43,-10.34,0.08,-0.87,10.38,0.4,-0.71,0.44,0.92
-9.91,0.31,-1.72,-10.26,0.13,-1.04,10.31,0.35,0.18,-0.68,0.79
-10.49,1.05,-1.64,-10.3,0.31,-1.16,10.37,-0.19,0.74,-0.48,0.9
-9.83,0.9,-2.46,-10.21,0.43,-1.42,10.31,0.38,0.47,-1.04,1.2
-9.83,0.35,-1.56,-10.13,0.41,-1.45,10.24,0.3,-0.06,-0.11,0.33
-10.76,0.58,-0.55,-10.26,0.45,-1.27,10.35,-0.51,0.14,0.72,0.89
-9.28,-0.58,-0.94,-10.06,0.24,-1.2,10.14,0.78,-0.83,0.26,1.17
-10.57,-0.47,-1.29,-10.16,0.1,-1.22,10.24,-0.4,-0.57,-0.07,0.7
-10.18,0.51,-1.48,-10.17,0.18,-1.27,10.25,-0.01,0.33,-0.21,0.39
-9.2,0.39,-0.78,-9.97,0.22,-1.17,10.05,0.77,0.17,0.39,0.88
-10.84,0.9,-1.56,-10.15,0.36,-1.25,10.23,-0.69,0.54,-0.31,0.93
-9.13,0.39,-1.4,-9.94,0.36,-1.28,10.03,0.82,0.03,-0.12,0.83
-9.94,1.01,-0.55,-9.94,0.49,-1.13,10.02,0,0.52,0.59,0.78
-9.75,0.43,0.98,-9.91,0.48,-0.71,9.94,0.16,-0.05,1.69,1.69
-9.91,0.86,0.16,-9.91,0.56,-0.54,9.94,0,0.3,0.69,0.76
-10.76,0.74,-0.74,-10.08,0.59,-0.58,10.11,-0.69,0.15,-0.16,0.72
-10.22,0.35,-0.58,-10.11,0.54,-0.58,10.14,-0.11,-0.19,0,0.22
-9.75,0.35,-0.12,-10.03,0.51,-0.49,10.06,0.28,-0.16,0.37,0.49
-9.87,0.19,0.74,-10,0.44,-0.24,10.01,0.13,-0.25,0.98,1.02
-10.65,0.78,0.35,-10.13,0.51,-0.12,10.14,-0.52,0.27,0.47,0.75
-10.3,0.94,0.04,-10.16,0.6,-0.09,10.18,-0.13,0.34,0.13,0.39
-9.44,0.98,-0.55,-10.02,0.67,-0.18,10.04,0.58,0.3,-0.36,0.75
-10.18,0.94,-0.08,-10.05,0.72,-0.16,10.08,-0.13,0.21,0.08,0.26
-10.02,0.62,0.16,-10.04,0.7,-0.1,10.07,0.02,-0.08,0.25,0.27
-9.71,0.82,0.27,-9.98,0.73,-0.02,10,0.27,0.09,0.3,0.41
-9.83,0.66,0.31,-9.95,0.71,0.04,9.97,0.12,-0.05,0.27,0.3
-10.76,1.25,1.13,-10.11,0.82,0.26,10.15,-0.65,0.43,0.87,1.17
-10.1,0.62,-1.17,-10.11,0.78,-0.03,10.14,0.01,-0.16,-1.14,1.16
-10.69,0.78,-0.94,-10.22,0.78,-0.21,10.26,-0.46,0,-0.73,0.86
-9.28,0.31,-0.19,-10.04,0.69,-0.2,10.06,0.75,-0.38,0.01,0.84
-11.78,0.98,0.43,-10.38,0.75,-0.08,10.41,-1.39,0.23,0.51,1.5
-9.56,0.7,-0.66,-10.22,0.74,-0.2,10.25,0.66,-0.03,-0.47,0.81
-9.52,1.6,-0.62,-10.08,0.91,-0.28,10.12,0.56,0.69,-0.34,0.95
-8.97,2.46,-0.58,-9.86,1.22,-0.34,9.94,0.89,1.24,-0.24,1.54
-11.43,-0.7,0.74,-10.17,0.83,-0.13,10.21,-1.26,-1.54,0.87,2.17
-10.73,-0.27,0.04,-10.28,0.61,-0.09,10.3,-0.44,-0.89,0.13,1
-9.56,-0.08,0.74,-10.14,0.47,0.07,10.15,0.58,-0.55,0.67,1.04
-10.49,1.44,-0.66,-10.21,0.67,-0.07,10.23,-0.28,0.77,-0.59,1.01
-8.42,-0.23,0.35,-9.85,0.49,0.01,9.86,1.43,-0.72,0.34,1.63
-7.92,1.99,-0.31,-9.46,0.79,-0.05,9.5,1.55,1.2,-0.26,1.98
-10.49,1.25,-0.23,-9.67,0.88,-0.09,9.71,-0.82,0.37,-0.14,0.91
-8.58,1.4,-0.9,-9.45,0.98,-0.25,9.51,0.87,0.42,-0.65,1.16
-8.97,1.25,0.16,-9.36,1.04,-0.17,9.41,0.39,0.21,0.33,0.55
-11.04,1.25,0.55,-9.69,1.08,-0.03,9.75,-1.35,0.17,0.57,1.47
-9.91,0.35,1.01,-9.73,0.93,0.18,9.78,-0.17,-0.58,0.83,1.03
-10.61,0.51,1.33,-9.91,0.85,0.41,9.95,-0.7,-0.34,0.92,1.2
-9.87,0.82,0.66,-9.9,0.84,0.46,9.95,0.03,-0.02,0.2,0.21
-11.54,-0.23,1.25,-10.23,0.63,0.62,10.27,-1.31,-0.86,0.63,1.69
-8.58,0.27,0.04,-9.9,0.56,0.5,9.93,1.32,-0.28,-0.46,1.43
-9.44,0.51,1.4,-9.81,0.55,0.68,9.85,0.37,-0.04,0.72,0.81
-11.47,0.78,0.98,-10.14,0.59,0.74,10.18,-1.33,0.19,0.23,1.36
-10.69,0.19,0.9,-10.25,0.51,0.77,10.29,-0.44,-0.32,0.12,0.56
-10.69,1.29,0.86,-10.34,0.67,0.79,10.39,-0.35,0.62,0.07,0.71
-9.94,0.39,0.58,-10.26,0.61,0.75,10.3,0.31,-0.22,-0.16,0.42
-10.34,0.47,0.94,-10.27,0.58,0.79,10.32,-0.06,-0.12,0.15,0.2
-9.91,0.9,1.95,-10.2,0.65,1.02,10.27,0.29,0.25,0.93,1.01
-10.14,0.12,1.37,-10.19,0.54,1.09,10.26,0.05,-0.42,0.28,0.51
-10.61,0.16,1.56,-10.27,0.46,1.18,10.35,-0.34,-0.31,0.38,0.59
-10.53,0.23,1.13,-10.32,0.42,1.17,10.4,-0.21,-0.18,-0.04,0.28
-9.32,0.08,1.01,-10.12,0.35,1.14,10.19,0.8,-0.27,-0.13,0.86
-10.22,0.12,1.13,-10.14,0.3,1.14,10.21,-0.08,-0.19,-0.01,0.2
-11.08,0.12,0.7,-10.33,0.27,1.05,10.39,-0.75,-0.15,-0.35,0.84
-9.71,0.12,0.74,-10.21,0.24,0.99,10.26,0.49,-0.12,-0.25,0.57
-8.97,0.51,0.47,-9.96,0.29,0.89,10,0.99,0.22,-0.42,1.09
-10.06,0.04,1.68,-9.98,0.24,1.04,10.04,-0.08,-0.2,0.63,0.67
-10.18,-0.04,1.75,-10.02,0.18,1.19,10.09,-0.16,-0.22,0.57,0.63
-10.1,0.12,1.37,-10.04,0.17,1.22,10.11,-0.07,-0.05,0.14,0.17
-10.18,-0.04,2.34,-10.06,0.13,1.45,10.17,-0.11,-0.17,0.89,0.92
-9.98,-0.31,1.72,-10.05,0.04,1.5,10.16,0.06,-0.35,0.22,0.42
-10.45,0,1.52,-10.13,0.03,1.5,10.24,-0.32,-0.03,0.02,0.33
-9.48,0.31,1.87,-10,0.09,1.58,10.12,0.52,0.22,0.29,0.64
-10.26,0,1.68,-10.05,0.07,1.6,10.18,-0.21,-0.07,0.08,0.23
-9.98,-0.39,1.72,-10.04,-0.02,1.62,10.17,0.05,-0.37,0.09,0.38
-10.37,-0.35,1.17,-10.1,-0.09,1.53,10.22,-0.27,-0.26,-0.36,0.52
-9.98,-0.04,-0.27,-10.08,-0.08,1.17,10.15,0.1,0.04,-1.44,1.45
-9.83,-0.47,-0.19,-10.03,-0.16,0.9,10.07,0.2,-0.31,-1.09,1.15
-10.22,-0.35,-0.31,-10.07,-0.19,0.66,10.09,-0.15,-0.16,-0.97,0.99
-10.3,0.04,-1.09,-10.11,-0.15,0.31,10.12,-0.18,0.19,-1.4,1.42
-9.83,-0.04,-0.66,-10.06,-0.13,0.11,10.06,0.23,0.09,-0.78,0.81
-10.06,-0.16,-0.27,-10.06,-0.13,0.04,10.06,0,-0.02,-0.31,0.31
-10.57,-0.23,-0.04,-10.16,-0.15,0.02,10.16,-0.41,-0.08,-0.06,0.42
-9.79,-0.08,-1.05,-10.09,-0.14,-0.19,10.09,0.3,0.06,-0.86,0.91
-10.1,0,-0.62,-10.09,-0.11,-0.28,10.09,-0.01,0.11,-0.34,0.36
-10.06,0.39,0,-10.08,-0.01,-0.22,10.09,0.02,0.4,0.22,0.46
-11,0.08,0.12,-10.27,0.01,-0.16,10.27,-0.73,0.07,0.27,0.78
-9.44,-0.31,0.27,-10.1,-0.06,-0.07,10.1,0.66,-0.26,0.34,0.79
-10.61,-0.55,0.19,-10.2,-0.15,-0.02,10.2,-0.41,-0.39,0.21,0.6
-10.02,0.23,0.08,-10.17,-0.08,0,10.17,0.14,0.31,0.08,0.35
-10.1,0.04,0.16,-10.15,-0.05,0.03,10.15,0.05,0.09,0.12,0.16
-10.14,-0.04,0.23,-10.15,-0.05,0.07,10.15,0.01,0.01,0.16,0.16
-9.67,-0.23,0.43,-10.05,-0.09,0.14,10.06,0.38,-0.15,0.28,0.5
-10.3,0.12,-0.31,-10.1,-0.05,0.05,10.1,-0.19,0.16,-0.36,0.44
-10.3,0.04,0.08,-10.14,-0.03,0.06,10.14,-0.15,0.07,0.02,0.17
-9.98,0.04,-0.66,-10.11,-0.02,-0.09,10.11,0.13,0.05,-0.58,0.59
-9.91,-0.04,-0.12,-10.07,-0.02,-0.09,10.07,0.16,-0.02,-0.02,0.17
-9.44,0.35,0.86,-9.94,0.05,0.1,9.94,0.51,0.3,0.76,0.96
-11.27,-0.19,0.86,-10.21,0,0.25,10.21,-1.06,-0.2,0.61,1.24
-9.75,-0.16,0.7,-10.12,-0.03,0.34,10.12,0.37,-0.13,0.36,0.53
-10.3,0.27,0.66,-10.15,0.03,0.4,10.16,-0.14,0.24,0.26,0.38
-9.87,0.12,0.16,-10.1,0.05,0.36,10.1,0.23,0.07,-0.2,0.31
-10.22,-0.23,-0.04,-10.12,-0.01,0.28,10.12,-0.1,-0.23,-0.32,0.4
-9.94,-0.58,0.43,-10.09,-0.12,0.31,10.09,0.14,-0.46,0.12,0.5
-9.63,0.12,0.08,-9.99,-0.07,0.26,10,0.36,0.19,-0.18,0.45
-10.26,0.31,-0.55,-10.05,0,0.1,10.05,-0.21,0.31,-0.65,0.75
-9.91,0.04,-0.66,-10.02,0.01,-0.05,10.02,0.11,0.03,-0.61,0.62
-9.87,0.12,0.51,-9.99,0.03,0.06,9.99,0.12,0.09,0.45,0.47
-10.73,-0.16,0.66,-10.14,-0.01,0.18,10.14,-0.59,-0.15,0.48,0.78
-9.98,0.08,0.27,-10.11,0.01,0.2,10.11,0.12,0.07,0.07,0.16
-10.22,-0.19,0.31,-10.13,-0.03,0.22,10.13,-0.09,-0.16,0.09,0.21
-10.02,0.12,0.43,-10.11,0,0.26,10.11,0.08,0.12,0.17,0.22
-10.02,0.31,0.16,-10.09,0.06,0.24,10.09,0.07,0.25,-0.09,0.27
-10.06,0.04,0.23,-10.08,0.06,0.24,10.09,0.02,-0.02,-0.01,0.03
-9.91,0,0.04,-10.05,0.05,0.2,10.05,0.14,-0.05,-0.16,0.22
-9.79,0.55,-0.27,-10,0.15,0.11,10,0.21,0.4,-0.38,0.59
-10.3,-0.23,-0.31,-10.06,0.07,0.02,10.06,-0.24,-0.3,-0.33,0.51
-10.06,-0.23,-0.08,-10.06,0.01,0,10.06,0,-0.24,-0.08,0.26
-9.91,0.04,-0.08,-10.03,0.02,-0.01,10.03,0.12,0.02,-0.06,0.14
-10.22,0.12,-0.35,-10.07,0.04,-0.08,10.07,-0.15,0.08,-0.27,0.32
-9.94,0,-0.12,-10.04,0.03,-0.09,10.04,0.1,-0.03,-0.03,0.1
-9.98,0.04,-0.39,-10.03,0.03,-0.15,10.03,0.05,0.01,-0.24,0.25
-10.22,0.12,-0.12,-10.07,0.05,-0.14,10.07,-0.15,0.07,0.03,0.17
-9.87,0.19,-0.19,-10.03,0.08,-0.15,10.03,0.16,0.12,-0.04,0.2
-10.14,-0.04,0.23,-10.05,0.05,-0.08,10.05,-0.09,-0.09,0.31,0.34
-10.3,-0.04,-0.16,-10.1,0.04,-0.09,10.1,-0.2,-0.07,-0.06,0.22
-9.75,0.04,-0.19,-10.03,0.04,-0.11,10.03,0.28,0,-0.08,0.29
-10.37,-0.04,0.55,-10.1,0.02,0.02,10.1,-0.28,-0.06,0.53,0.6
-10.22,0.08,-0.31,-10.12,0.03,-0.05,10.12,-0.1,0.05,-0.27,0.29
-10.34,-0.16,-0.27,-10.16,-0.01,-0.09,10.17,-0.17,-0.15,-0.18,0.29
-9.91,0.12,-0.35,-10.11,0.02,-0.14,10.11,0.21,0.1,-0.21,0.31
-10.18,-0.12,-0.55,-10.13,-0.01,-0.22,10.13,-0.05,-0.11,-0.32,0.34
-9.91,-0.04,0.08,-10.08,-0.01,-0.16,10.08,0.18,-0.02,0.24,0.3
-10.45,-0.08,0.78,-10.16,-0.03,0.02,10.16,-0.3,-0.05,0.76,0.81
-10.45,0,0.19,-10.22,-0.02,0.06,10.22,-0.24,0.02,0.14,0.27
-9.83,-0.08,0.16,-10.14,-0.03,0.08,10.14,0.31,-0.05,0.08,0.32
-9.98,0.12,0.86,-10.11,0,0.23,10.11,0.12,0.12,0.62,0.65
-10.37,-0.31,0.98,-10.16,-0.06,0.38,10.17,-0.21,-0.25,0.59,0.68
-10.1,-0.19,0.55,-10.15,-0.09,0.42,10.16,0.05,-0.1,0.13,0.17
-9.91,0,0.23,-10.1,-0.07,0.38,10.11,0.19,0.07,-0.14,0.25
-9.83,0.27,-0.12,-10.05,0,0.28,10.05,0.22,0.28,-0.4,0.53
-10.41,0,-0.62,-10.12,0,0.1,10.12,-0.29,0,-0.72,0.78
-9.79,-0.19,-0.58,-10.05,-0.04,-0.04,10.05,0.26,-0.15,-0.55,0.63
-10.49,-0.23,-0.08,-10.14,-0.08,-0.05,10.14,-0.35,-0.15,-0.03,0.38
-9.75,0.23,-0.58,-10.06,-0.02,-0.15,10.06,0.31,0.25,-0.43,0.59
-10.02,-0.08,0.12,-10.05,-0.03,-0.1,10.06,0.03,-0.05,0.22,0.22
-9.98,0.16,0.04,-10.04,0.01,-0.07,10.04,0.06,0.15,0.11,0.19
-9.94,-0.19,0.58,-10.02,-0.03,0.06,10.02,0.08,-0.16,0.53,0.56
-10.76,0.04,0.78,-10.17,-0.02,0.2,10.17,-0.59,0.06,0.58,0.83
-9.4,0.08,0.43,-10.02,0,0.25,10.02,0.62,0.08,0.18,0.65
-9.87,0,1.29,-9.99,0,0.46,10,0.12,0,0.83,0.84
-10.1,-0.55,1.01,-10.01,-0.11,0.57,10.03,-0.09,-0.44,0.45,0.63
-10.37,0.04,0.55,-10.08,-0.08,0.56,10.1,-0.29,0.12,-0.02,0.32
-9.79,0.31,-0.04,-10.02,0,0.44,10.03,0.23,0.31,-0.48,0.62
-9.94,-0.19,0,-10.01,-0.04,0.35,10.01,0.06,-0.16,-0.35,0.39
-10.14,-0.35,-0.19,-10.03,-0.1,0.24,10.04,-0.11,-0.25,-0.44,0.52
-9.83,0,-0.58,-9.99,-0.08,0.08,9.99,0.16,0.08,-0.66,0.69
-10.1,-0.19,-0.08,-10.01,-0.1,0.05,10.02,-0.09,-0.09,-0.13,0.18
-9.87,0,-0.23,-9.99,-0.08,-0.01,9.99,0.12,0.08,-0.23,0.27
-9.98,0,0.27,-9.98,-0.07,0.05,9.99,0,0.07,0.23,0.24
-9.98,0.12,0.94,-9.98,-0.03,0.23,9.99,0,0.15,0.71,0.73
-10.18,0.08,0.16,-10.02,-0.01,0.21,10.03,-0.16,0.09,-0.06,0.19
-10.22,0,-0.58,-10.06,-0.01,0.05,10.06,-0.16,0.01,-0.64,0.66
-9.87,-0.19,0.23,-10.02,-0.04,0.09,10.02,0.16,-0.15,0.15,0.26
-10.14,0.04,-0.31,-10.05,-0.03,0.01,10.05,-0.09,0.07,-0.32,0.34
-9.87,0.04,0.12,-10.01,-0.01,0.03,10.01,0.14,0.05,0.09,0.18
-9.83,0,0.16,-9.97,-0.01,0.06,9.97,0.15,0.01,0.1,0.18
-10.53,-0.23,-0.47,-10.09,-0.06,-0.05,10.09,-0.44,-0.18,-0.42,0.64
-9.98,-0.08,-0.31,-10.07,-0.06,-0.1,10.07,0.08,-0.02,-0.21,0.23
-10.34,-0.16,0.16,-10.12,-0.08,-0.05,10.12,-0.22,-0.08,0.21,0.31
-9.98,0.23,-0.08,-10.09,-0.02,-0.06,10.09,0.11,0.25,-0.02,0.27
-9.75,0.47,-0.27,-10.02,0.08,-0.1,10.02,0.27,0.39,-0.17,0.51
-9.98,0,-0.39,-10.02,0.06,-0.16,10.02,0.03,-0.06,-0.23,0.24
-9.75,0.04,0.66,-9.96,0.06,0.01,9.96,0.21,-0.02,0.66,0.69
-10.92,0,0.62,-10.15,0.05,0.13,10.15,-0.77,-0.05,0.49,0.91
-9.59,0.08,0.7,-10.04,0.05,0.24,10.05,0.45,0.02,0.46,0.64
-9.91,0.08,0.86,-10.01,0.06,0.37,10.02,0.11,0.02,0.49,0.5
-10.49,-0.08,0.78,-10.11,0.03,0.45,10.12,-0.38,-0.11,0.33,0.52
-10.37,0.08,0.31,-10.16,0.04,0.42,10.17,-0.21,0.04,-0.11,0.24
-9.83,0.23,-0.47,-10.1,0.08,0.24,10.1,0.27,0.15,-0.71,0.78
-10.02,-0.27,-0.35,-10.08,0.01,0.13,10.08,0.06,-0.28,-0.48,0.56
-10.69,-0.19,0.04,-10.2,-0.03,0.11,10.2,-0.48,-0.16,-0.07,0.52
-10.06,-0.04,0.12,-10.17,-0.03,0.11,10.17,0.11,-0.01,0.01,0.11
-9.48,0.58,0.23,-10.03,0.09,0.13,10.04,0.56,0.49,0.1,0.75
-10.26,0.04,0.86,-10.08,0.08,0.28,10.08,-0.18,-0.04,0.58,0.61
-10.3,-0.39,0.98,-10.12,-0.01,0.42,10.13,-0.17,-0.38,0.56,0.69
-9.75,0.12,0.98,-10.05,0.01,0.53,10.06,0.3,0.1,0.45,0.55
-9.87,0.16,0.58,-10.01,0.04,0.54,10.03,0.14,0.12,0.04,0.19
-10.49,0.27,1.09,-10.11,0.09,0.65,10.13,-0.38,0.19,0.44,0.61
-9.59,0.58,1.21,-10,0.19,0.76,10.04,0.41,0.4,0.45,0.73
-10.34,0.43,0.43,-10.07,0.24,0.7,10.1,-0.26,0.19,-0.27,0.42
-10.73,-0.58,0.78,-10.2,0.07,0.71,10.23,-0.52,-0.66,0.07,0.84
-9.67,0.12,0.19,-10.1,0.08,0.61,10.11,0.42,0.04,-0.41,0.59
-10.22,0.19,-0.16,-10.12,0.1,0.46,10.13,-0.1,0.09,-0.61,0.63
-9.87,0.39,-0.12,-10.07,0.16,0.34,10.08,0.2,0.23,-0.46,0.55
-10.22,0.58,-0.94,-10.1,0.25,0.09,10.1,-0.12,0.34,-1.02,1.08
-9.94,0.23,0.19,-10.07,0.24,0.11,10.07,0.12,-0.01,0.09,0.15
-10.22,0.16,1.05,-10.1,0.23,0.3,10.11,-0.12,-0.07,0.76,0.77
-10.37,0.04,0.9,-10.15,0.19,0.42,10.16,-0.22,-0.15,0.48,0.55
-9.91,0.23,1.4,-10.1,0.2,0.61,10.12,0.2,0.04,0.79,0.81
-9.79,0.66,1.13,-10.04,0.29,0.72,10.07,0.25,0.37,0.41,0.61
-10.37,0.55,0.94,-10.11,0.34,0.76,10.14,-0.27,0.2,0.17,0.38
-10.53,-0.23,-0.04,-10.19,0.23,0.6,10.21,-0.34,-0.46,-0.64,0.86
-9.91,0.08,-0.16,-10.13,0.2,0.45,10.15,0.23,-0.12,-0.61,0.66
-10.06,0.39,-0.51,-10.12,0.24,0.26,10.13,0.06,0.15,-0.77,0.78
-10.26,0.08,0.51,-10.15,0.2,0.31,10.15,-0.11,-0.13,0.2,0.26
-9.87,0,0.31,-10.09,0.16,0.31,10.1,0.22,-0.16,0,0.28
-9.87,0.31,0.94,-10.05,0.19,0.43,10.06,0.18,0.12,0.5,0.55
-10.22,0.27,0.58,-10.08,0.21,0.46,10.09,-0.14,0.06,0.12,0.19
-10.06,0.19,0.94,-10.08,0.21,0.56,10.09,0.02,-0.01,0.38,0.38
-9.94,0.12,1.21,-10.05,0.19,0.69,10.08,0.11,-0.07,0.52,0.54
-10.06,0.35,0.9,-10.05,0.22,0.73,10.08,-0.01,0.13,0.17,0.21
-9.67,0.31,1.37,-9.98,0.24,0.86,10.02,0.3,0.07,0.51,0.6
-10.57,0.23,-0.27,-10.1,0.24,0.63,10.12,-0.47,0,-0.9,1.02
-9.87,0.19,0.51,-10.05,0.23,0.61,10.07,0.18,-0.03,-0.1,0.21
-10.02,0.12,0.39,-10.04,0.21,0.56,10.06,0.02,-0.09,-0.17,0.2
-10.06,0.16,0.35,-10.05,0.2,0.52,10.06,-0.01,-0.04,-0.17,0.18
-9.91,0.31,0.19,-10.02,0.22,0.46,10.03,0.11,0.09,-0.26,0.3
-9.98,0.19,0.47,-10.01,0.21,0.46,10.03,0.03,-0.02,0.01,0.04
-10.26,0.16,-0.27,-10.06,0.2,0.31,10.07,-0.2,-0.05,-0.58,0.62
-10.1,0.27,-0.19,-10.07,0.22,0.21,10.07,-0.03,0.06,-0.41,0.41
-10.18,0.08,0,-10.09,0.19,0.17,10.09,-0.09,-0.11,-0.17,0.22
-10.06,0.55,0.19,-10.09,0.26,0.17,10.09,0.02,0.29,0.02,0.29
-10.1,0.23,0.12,-10.09,0.26,0.16,10.09,-0.01,-0.02,-0.05,0.05
-10.14,0.12,0.23,-10.1,0.23,0.18,10.1,-0.04,-0.11,0.06,0.13
-10.14,0.35,0.08,-10.11,0.25,0.16,10.11,-0.03,0.1,-0.08,0.13
-10.14,0.19,-0.23,-10.11,0.24,0.08,10.12,-0.03,-0.05,-0.31,0.32
-10.14,0.23,0.39,-10.12,0.24,0.14,10.12,-0.02,-0.01,0.25,0.25
-9.91,0.35,0.31,-10.08,0.26,0.18,10.08,0.17,0.09,0.14,0.24
-10.1,0.12,-0.12,-10.08,0.23,0.12,10.08,-0.02,-0.12,-0.23,0.26
-10.02,0.19,0.12,-10.07,0.23,0.12,10.07,0.05,-0.03,0,0.06
-9.83,0.55,0.23,-10.02,0.29,0.14,10.03,0.19,0.26,0.09,0.33
-10.22,0.31,-0.08,-10.06,0.29,0.1,10.07,-0.16,0.02,-0.17,0.24
-10.06,0.47,0.12,-10.06,0.33,0.1,10.07,0,0.14,0.02,0.14
-10.1,0.31,-0.16,-10.07,0.33,0.05,10.07,-0.03,-0.01,-0.21,0.21
-9.87,0.35,0.51,-10.03,0.33,0.14,10.03,0.16,0.02,0.37,0.4
-10.02,0.39,0.08,-10.03,0.34,0.13,10.03,0,0.05,-0.05,0.07
-10.1,0.35,-0.08,-10.04,0.34,0.09,10.05,-0.06,0.01,-0.17,0.18
-10.14,0.16,-0.12,-10.06,0.31,0.05,10.07,-0.08,-0.15,-0.16,0.24
-10.1,0,0.43,-10.07,0.25,0.12,10.07,-0.03,-0.25,0.31,0.39
-10.34,0.08,0.04,-10.12,0.21,0.11,10.13,-0.21,-0.13,-0.07,0.26
-10.02,0.35,0.04,-10.1,0.24,0.09,10.11,0.08,0.11,-0.05,0.15
-9.94,0.16,0.12,-10.07,0.22,0.1,10.07,0.13,-0.07,0.02,0.14
-10.18,0.31,-0.23,-10.09,0.24,0.03,10.1,-0.09,0.07,-0.27,0.29
-10.18,0,0.04,-10.11,0.19,0.03,10.11,-0.07,-0.19,0.01,0.2
-10.06,0.35,0.16,-10.1,0.22,0.06,10.1,0.04,0.13,0.1,0.17
-9.94,0.31,0.74,-10.07,0.24,0.19,10.07,0.12,0.07,0.55,0.57
-10.1,-0.04,0.51,-10.08,0.19,0.26,10.08,-0.03,-0.22,0.25,0.34
-9.87,0.27,0.62,-10.03,0.2,0.33,10.04,0.17,0.07,0.29,0.35
-10.02,0.43,0.12,-10.03,0.25,0.29,10.04,0.01,0.18,-0.17,0.25
-10.22,0.16,0.04,-10.07,0.23,0.24,10.07,-0.15,-0.07,-0.2,0.26
-10.18,0.12,0.23,-10.09,0.21,0.24,10.1,-0.09,-0.09,0,0.13
-10.18,0.47,-0.19,-10.11,0.26,0.15,10.11,-0.07,0.21,-0.35,0.41
-10.26,0.12,0.16,-10.14,0.23,0.15,10.14,-0.12,-0.11,0,0.16
-10.1,0.27,0.16,-10.13,0.24,0.15,10.13,0.03,0.03,0,0.05
-9.94,0.35,0.31,-10.09,0.26,0.18,10.1,0.15,0.09,0.13,0.22
-9.98,0.12,0.27,-10.07,0.23,0.2,10.08,0.09,-0.12,0.07,0.16
-10.18,0.16,-0.23,-10.09,0.22,0.11,10.1,-0.09,-0.06,-0.35,0.36
-10.22,-0.12,0.43,-10.12,0.15,0.18,10.12,-0.1,-0.27,0.25,0.38
-9.87,0.16,0.55,-10.07,0.15,0.25,10.07,0.2,0,0.29,0.36
-9.98,0.35,0.39,-10.05,0.19,0.28,10.06,0.07,0.16,0.11,0.21
-10.06,-0.08,0.35,-10.05,0.14,0.29,10.06,-0.01,-0.22,0.06,0.22
-10.14,0.12,0.12,-10.07,0.13,0.26,10.07,-0.07,-0.02,-0.14,0.16
-9.98,0.27,-0.23,-10.05,0.16,0.16,10.06,0.07,0.11,-0.39,0.42
-10.18,0.23,0.08,-10.08,0.18,0.14,10.08,-0.1,0.06,-0.07,0.13
-10.1,0.16,0.27,-10.08,0.17,0.17,10.09,-0.02,-0.02,0.1,0.11
-10.06,0.43,0.19,-10.08,0.22,0.17,10.08,0.02,0.21,0.02,0.21
-9.98,0.27,0.51,-10.06,0.23,0.24,10.07,0.08,0.04,0.27,0.28
-10.14,0.04,0.58,-10.08,0.19,0.31,10.08,-0.06,-0.16,0.28,0.32
-10.22,0.31,-0.04,-10.1,0.22,0.24,10.11,-0.11,0.09,-0.28,0.32
-10.22,0.39,0.16,-10.13,0.25,0.22,10.13,-0.09,0.14,-0.07,0.18
-10.02,0.04,0.74,-10.11,0.21,0.33,10.11,0.08,-0.17,0.41,0.46
-10.1,0.04,0.9,-10.11,0.18,0.44,10.12,0,-0.14,0.46,0.48
-10.1,0.31,-0.27,-10.1,0.2,0.3,10.11,0,0.11,-0.57,0.58
-10.06,0.12,0,-10.1,0.19,0.24,10.1,0.03,-0.07,-0.24,0.25
-10.18,0.19,0.31,-10.11,0.19,0.25,10.12,-0.07,0.01,0.06,0.09
-10.02,0,0.19,-10.09,0.15,0.24,10.1,0.07,-0.15,-0.05,0.17
-9.87,0.47,0.62,-10.05,0.21,0.32,10.06,0.18,0.25,0.31,0.44
-9.98,0.19,0.39,-10.04,0.21,0.33,10.04,0.05,-0.01,0.06,0.08
-10.14,0.27,0,-10.06,0.22,0.27,10.06,-0.08,0.05,-0.27,0.28
-10.1,0.19,0.19,-10.07,0.22,0.25,10.07,-0.04,-0.02,-0.06,0.07
-9.91,0.16,0.62,-10.03,0.2,0.33,10.04,0.13,-0.05,0.3,0.33
-10.1,0.27,0.04,-10.05,0.22,0.27,10.05,-0.05,0.05,-0.23,0.24
-9.91,0.35,0.47,-10.02,0.24,0.31,10.03,0.11,0.11,0.16,0.22
-10.14,0.51,-0.35,-10.04,0.3,0.18,10.05,-0.1,0.21,-0.53,0.58
-10.26,0.04,-0.08,-10.09,0.25,0.13,10.09,-0.17,-0.21,-0.2,0.34
-10.18,-0.04,0.16,-10.1,0.19,0.13,10.11,-0.07,-0.23,0.02,0.24
-9.63,0.31,0.62,-10.01,0.21,0.23,10.02,0.38,0.1,0.39,0.55
-10.3,0.27,0.47,-10.07,0.23,0.28,10.07,-0.23,0.05,0.19,0.3
-10.41,0.19,-0.62,-10.14,0.22,0.1,10.14,-0.28,-0.02,-0.72,0.77
-9.67,0.35,-1.6,-10.04,0.25,-0.24,10.05,0.37,0.11,-1.36,1.41
-10.1,0,-0.23,-10.06,0.2,-0.24,10.06,-0.05,-0.2,0.01,0.2
-10.14,0.35,-0.82,-10.07,0.23,-0.36,10.08,-0.07,0.12,-0.46,0.48
-9.98,0.19,-0.98,-10.05,0.22,-0.48,10.07,0.07,-0.03,-0.5,0.5
-10.06,0.47,-0.35,-10.06,0.27,-0.45,10.07,-0.01,0.2,0.1,0.22
-10.3,0.23,-0.78,-10.1,0.26,-0.52,10.12,-0.19,-0.03,-0.26,0.33
-9.91,0.08,-0.04,-10.06,0.23,-0.42,10.08,0.16,-0.15,0.38,0.44
-9.87,0.31,-0.58,-10.02,0.24,-0.46,10.04,0.16,0.07,-0.13,0.22
-10.22,0.04,-0.55,-10.06,0.2,-0.47,10.08,-0.15,-0.16,-0.07,0.24
-10.02,0.47,-0.12,-10.06,0.26,-0.4,10.07,0.03,0.21,0.29,0.36
-10.1,0.19,-0.51,-10.06,0.24,-0.42,10.08,-0.04,-0.05,-0.08,0.1
-9.91,0.19,-0.7,-10.03,0.23,-0.48,10.05,0.13,-0.04,-0.22,0.26
-10.26,0.47,-0.7,-10.08,0.28,-0.52,10.1,-0.18,0.19,-0.18,0.31
-10.3,0.31,-0.08,-10.12,0.29,-0.43,10.13,-0.17,0.03,0.36,0.4
-9.67,0.43,0.55,-10.03,0.32,-0.24,10.04,0.36,0.11,0.78,0.87
-10.3,0.12,0.39,-10.08,0.28,-0.11,10.09,-0.21,-0.16,0.5,0.57
-10.02,0.23,0.51,-10.07,0.27,0.01,10.08,0.05,-0.03,0.5,0.5
-10.1,0.23,0.27,-10.08,0.26,0.06,10.08,-0.02,-0.03,0.21,0.21
-10.37,0.12,0.47,-10.14,0.23,0.14,10.14,-0.24,-0.11,0.32,0.42
-9.67,0.04,0.47,-10.04,0.19,0.21,10.05,0.37,-0.15,0.26,0.48
-10.61,0.39,0.16,-10.16,0.23,0.2,10.16,-0.45,0.16,-0.04,0.48
-8.85,0.55,0.19,-9.9,0.3,0.2,9.9,1.04,0.25,0,1.07
-11.08,0.27,0.04,-10.13,0.29,0.17,10.14,-0.94,-0.02,-0.13,0.95
-9.75,0.35,0.04,-10.06,0.3,0.14,10.06,0.31,0.05,-0.1,0.33
-10.41,0.51,-0.23,-10.13,0.34,0.07,10.13,-0.29,0.16,-0.3,0.45
-9.67,0.58,0.12,-10.04,0.39,0.08,10.04,0.36,0.19,0.04,0.41
-10.18,0.47,-0.58,-10.06,0.41,-0.06,10.07,-0.11,0.06,-0.53,0.54
-10.1,0.35,-0.47,-10.07,0.4,-0.14,10.08,-0.03,-0.04,-0.33,0.33
-10.02,0.08,-0.16,-10.06,0.33,-0.14,10.07,0.04,-0.25,-0.01,0.26
-10.69,-0.04,-0.78,-10.19,0.26,-0.27,10.19,-0.5,-0.3,-0.51,0.77
-9.44,0.23,0.04,-10.04,0.25,-0.21,10.04,0.6,-0.02,0.25,0.65
-10.26,0.55,-0.39,-10.08,0.31,-0.24,10.09,-0.18,0.23,-0.15,0.33
-9.79,0.47,0.23,-10.02,0.34,-0.15,10.03,0.23,0.12,0.38,0.47
-10.18,0.55,0.62,-10.05,0.38,0.01,10.06,-0.13,0.16,0.62,0.65
-10.92,0.08,0.58,-10.23,0.32,0.12,10.23,-0.69,-0.24,0.46,0.87
-9.36,0.55,-0.08,-10.05,0.37,0.08,10.06,0.69,0.18,-0.16,0.73
-9.36,0.55,0.16,-9.91,0.4,0.1,9.92,0.55,0.14,0.06,0.58
-10.69,0.66,0.08,-10.07,0.45,0.09,10.08,-0.62,0.21,-0.01,0.65
-9.71,0.19,0.94,-10,0.4,0.26,10.01,0.29,-0.21,0.67,0.76
-9.91,0.9,0.58,-9.98,0.5,0.33,10,0.07,0.4,0.26,0.48
-10.45,0.66,1.25,-10.07,0.53,0.51,10.1,-0.38,0.13,0.74,0.84
-10.1,0.43,1.44,-10.08,0.51,0.7,10.12,-0.02,-0.08,0.75,0.75
-10.49,0.31,2.03,-10.16,0.47,0.96,10.22,-0.33,-0.16,1.06,1.13
-9.75,0.86,2.03,-10.08,0.55,1.18,10.16,0.33,0.31,0.85,0.96
-10.06,0.66,1.87,-10.08,0.57,1.32,10.18,0.01,0.09,0.56,0.56
-10.22,0.23,1.25,-10.1,0.5,1.3,10.2,-0.11,-0.27,-0.05,0.3
-10.06,0.16,0.35,-10.1,0.44,1.11,10.17,0.03,-0.28,-0.76,0.81
-9.83,0.47,-0.04,-10.04,0.44,0.88,10.09,0.21,0.03,-0.92,0.95
-9.98,0.98,-0.23,-10.03,0.55,0.66,10.07,0.05,0.43,-0.89,0.99
-10.02,0.58,0.27,-10.03,0.56,0.58,10.06,0.01,0.03,-0.31,0.31
-10.26,0.31,-0.19,-10.07,0.51,0.43,10.1,-0.18,-0.19,-0.62,0.68
-10.18,0.35,-0.23,-10.1,0.48,0.29,10.11,-0.08,-0.12,-0.53,0.55
-10.1,0.62,-0.58,-10.1,0.51,0.12,10.11,0,0.12,-0.7,0.71
-9.87,0.78,-1.13,-10.05,0.56,-0.13,10.07,0.18,0.22,-1,1.04
-10.14,0.55,-0.86,-10.07,0.56,-0.28,10.09,-0.07,-0.01,-0.58,0.59
-10.02,0.86,-0.58,-10.06,0.62,-0.34,10.08,0.04,0.24,-0.25,0.35
-9.94,0.66,0.16,-10.04,0.63,-0.24,10.06,0.09,0.04,0.4,0.41
-10.65,0.43,0.62,-10.16,0.59,-0.07,10.18,-0.49,-0.16,0.69,0.86
-9.83,0.7,0.78,-10.09,0.61,0.1,10.11,0.26,0.09,0.68,0.73
-10.18,0.74,0.12,-10.11,0.64,0.11,10.13,-0.07,0.1,0.01,0.13
-9.94,0.43,-0.12,-10.08,0.59,0.06,10.09,0.13,-0.17,-0.18,0.28
-9.59,0.74,0.31,-9.98,0.62,0.11,10,0.39,0.12,0.2,0.45
-10.53,0.47,-0.9,-10.09,0.59,-0.09,10.11,-0.44,-0.12,-0.81,0.93
-9.83,0.58,-0.12,-10.04,0.59,-0.1,10.06,0.21,-0.01,-0.02,0.21
-9.83,0.66,0.35,-10,0.61,-0.01,10.01,0.17,0.06,0.36,0.4
-10.73,0.31,0.39,-10.14,0.55,0.07,10.16,-0.58,-0.23,0.32,0.7
-9.91,0.43,0.12,-10.09,0.52,0.08,10.11,0.19,-0.09,0.04,0.21
-9.83,0.74,0.39,-10.04,0.57,0.14,10.06,0.21,0.17,0.25,0.37
-10.18,0.58,0.12,-10.07,0.57,0.14,10.09,-0.11,0.01,-0.02,0.11
-10.41,0.23,0.12,-10.14,0.5,0.13,10.15,-0.28,-0.27,-0.02,0.39
-9.83,0.51,0.12,-10.08,0.5,0.13,10.09,0.25,0,-0.01,0.25
-9.87,0.82,-0.66,-10.03,0.57,-0.03,10.05,0.17,0.25,-0.63,0.7
-9.98,0.55,-0.23,-10.02,0.56,-0.07,10.04,0.04,-0.02,-0.16,0.17
-10.18,0.23,1.05,-10.05,0.5,0.16,10.07,-0.12,-0.26,0.9,0.94
-10.34,0.74,0.43,-10.11,0.55,0.21,10.13,-0.22,0.2,0.22,0.37
-10.06,0.43,0.08,-10.1,0.52,0.18,10.12,0.04,-0.09,-0.11,0.15
-9.98,0.98,0.27,-10.08,0.61,0.2,10.1,0.09,0.36,0.07,0.38
-10.1,0.66,0.12,-10.08,0.62,0.18,10.1,-0.02,0.04,-0.07,0.08
-10.02,0.43,1.37,-10.07,0.58,0.42,10.1,0.05,-0.16,0.94,0.96
-9.79,1.05,0.78,-10.01,0.68,0.49,10.05,0.23,0.38,0.29,0.52
-10.22,0.39,0.23,-10.05,0.62,0.44,10.08,-0.16,-0.23,-0.21,0.35
-10.06,0.35,0.9,-10.06,0.57,0.53,10.09,-0.01,-0.22,0.36,0.42
-10.02,0.82,1.17,-10.05,0.62,0.66,10.09,0.03,0.2,0.51,0.55
-9.83,0.82,0.62,-10.01,0.66,0.65,10.05,0.18,0.16,-0.03,0.24
-9.83,1.05,-0.08,-9.97,0.74,0.51,10.01,0.14,0.32,-0.58,0.68
-10.02,0.7,0.16,-9.98,0.73,0.44,10.02,-0.04,-0.03,-0.28,0.28
-10.41,0.66,0.12,-10.07,0.72,0.37,10.1,-0.35,-0.05,-0.26,0.43
-10.14,0.35,-0.04,-10.08,0.64,0.29,10.11,-0.06,-0.29,-0.33,0.44
-9.87,0.55,-0.04,-10.04,0.62,0.22,10.06,0.17,-0.08,-0.26,0.32
-10.1,0.51,0.55,-10.05,0.6,0.29,10.07,-0.05,-0.09,0.26,0.28
-9.91,0.82,0.31,-10.02,0.64,0.29,10.05,0.12,0.17,0.02,0.21
-9.98,0.62,0.12,-10.01,0.64,0.26,10.04,0.03,-0.02,-0.14,0.15
-10.1,0.62,0.08,-10.03,0.64,0.22,10.05,-0.07,-0.01,-0.14,0.16
-10.14,0.35,0.43,-10.05,0.58,0.26,10.07,-0.09,-0.23,0.17,0.3
-10.02,0.55,-0.19,-10.05,0.57,0.17,10.07,0.02,-0.03,-0.37,0.37
-9.98,0.51,0.27,-10.03,0.56,0.19,10.05,0.05,-0.05,0.08,0.11
-10.1,0.35,0.39,-10.05,0.52,0.23,10.06,-0.05,-0.17,0.16,0.24
-9.91,0.47,0.43,-10.02,0.51,0.27,10.04,0.11,-0.04,0.16,0.2
-10.14,0.55,0.12,-10.04,0.52,0.24,10.06,-0.1,0.03,-0.12,0.16
-10.14,0.35,-0.19,-10.06,0.48,0.15,10.08,-0.08,-0.13,-0.35,0.38
-9.94,0.51,0.19,-10.04,0.49,0.16,10.05,0.09,0.02,0.03,0.1
-9.91,0.62,0.08,-10.01,0.51,0.14,10.03,0.11,0.11,-0.07,0.17
-10.18,0.39,-0.04,-10.05,0.49,0.11,10.06,-0.13,-0.1,-0.15,0.22
-9.98,0.7,0.7,-10.03,0.53,0.23,10.05,0.05,0.17,0.48,0.51
-10.02,0.66,0.04,-10.03,0.56,0.19,10.05,0.01,0.1,-0.15,0.18
-10.26,0.47,0,-10.08,0.54,0.15,10.09,-0.18,-0.07,-0.15,0.25
-10.18,0.23,0.12,-10.1,0.48,0.14,10.11,-0.08,-0.25,-0.03,0.26
-9.94,0.43,0.31,-10.07,0.47,0.18,10.08,0.12,-0.04,0.13,0.19
-9.87,0.9,0.16,-10.03,0.55,0.17,10.04,0.16,0.34,-0.02,0.38
-10.1,0.39,0.23,-10.04,0.52,0.19,10.06,-0.06,-0.13,0.05,0.15
-9.87,0.74,0.39,-10.01,0.57,0.23,10.03,0.14,0.18,0.16,0.28
-10.14,0.35,0.08,-10.03,0.52,0.2,10.05,-0.11,-0.17,-0.12,0.23
-10.06,0.51,-0.08,-10.04,0.52,0.14,10.05,-0.02,-0.01,-0.22,0.22
-10.14,0.31,-0.16,-10.06,0.48,0.08,10.07,-0.08,-0.17,-0.24,0.3
-10.18,0.23,0.19,-10.08,0.43,0.1,10.09,-0.1,-0.2,0.09,0.24
-10.02,0.55,0.08,-10.07,0.45,0.1,10.08,0.05,0.09,-0.02,0.11
-10.18,0.47,-0.31,-10.09,0.46,0.02,10.1,-0.09,0.01,-0.33,0.34
-9.87,0.66,0.47,-10.05,0.5,0.11,10.06,0.18,0.17,0.36,0.44
-10.18,0.27,0.19,-10.07,0.45,0.12,10.08,-0.11,-0.18,0.07,0.22
-10.02,0.74,0.04,-10.06,0.51,0.11,10.08,0.04,0.23,-0.07,0.24
-10.37,0.47,-0.12,-10.13,0.5,0.06,10.14,-0.25,-0.03,-0.18,0.31
-9.83,0.9,0.35,-10.07,0.58,0.12,10.08,0.24,0.32,0.23,0.46
-10.34,0.66,-0.58,-10.12,0.6,-0.02,10.14,-0.22,0.07,-0.56,0.61
-10.3,0.39,-0.31,-10.16,0.56,-0.08,10.17,-0.14,-0.17,-0.23,0.32
-10.1,0.31,0.47,-10.14,0.51,0.03,10.16,0.04,-0.19,0.44,0.48
-9.87,0.62,0,-10.09,0.53,0.02,10.1,0.22,0.09,-0.02,0.24
-9.94,0.55,-0.08,-10.06,0.53,0,10.07,0.12,0.01,-0.08,0.14
-10.06,0.62,-0.04,-10.06,0.55,0,10.08,0,0.07,-0.03,0.08
-10.14,0.58,0.39,-10.08,0.56,0.07,10.09,-0.06,0.03,0.32,0.32
-10.14,0.47,0.04,-10.09,0.54,0.07,10.1,-0.05,-0.07,-0.03,0.09
-10.22,0.27,0.12,-10.11,0.49,0.08,10.13,-0.1,-0.21,0.04,0.24
-10.02,0.39,0.35,-10.1,0.47,0.13,10.11,0.07,-0.08,0.22,0.24
-10.22,0.47,0,-10.12,0.47,0.11,10.13,-0.1,0,-0.11,0.14
-10.18,0.27,0.19,-10.13,0.43,0.12,10.14,-0.05,-0.16,0.07,0.18
-10.02,0.9,0.19,-10.11,0.52,0.14,10.12,0.09,0.37,0.06,0.39
-10.26,0.47,-0.16,-10.14,0.51,0.08,10.15,-0.12,-0.04,-0.23,0.27
-9.98,0.43,0.51,-10.11,0.49,0.16,10.12,0.12,-0.07,0.34,0.37
-9.94,0.86,-0.98,-10.08,0.57,-0.06,10.09,0.13,0.29,-0.91,0.97
-10.34,0.7,-0.35,-10.13,0.59,-0.12,10.15,-0.21,0.11,-0.23,0.33
-10.18,0.58,-0.98,-10.14,0.59,-0.29,10.16,-0.04,-0.01,-0.68,0.68
-9.91,0.39,0,-10.09,0.55,-0.23,10.11,0.19,-0.16,0.23,0.34
-9.87,0.7,-0.66,-10.05,0.58,-0.32,10.07,0.18,0.12,-0.34,0.41
-10.37,0.23,-0.62,-10.11,0.51,-0.38,10.13,-0.26,-0.28,-0.24,0.45
-9.59,0.7,-0.31,-10.01,0.55,-0.37,10.03,0.41,0.15,0.05,0.44
-10.14,0.94,-0.35,-10.03,0.63,-0.36,10.06,-0.11,0.31,0.01,0.33
-10.1,0.35,-0.39,-10.05,0.57,-0.37,10.07,-0.05,-0.22,-0.02,0.23
-9.94,0.23,-0.9,-10.03,0.5,-0.47,10.05,0.08,-0.27,-0.42,0.51
-9.98,0.66,-0.94,-10.02,0.54,-0.57,10.05,0.03,0.13,-0.37,0.39
-10.3,0.43,-0.43,-10.07,0.51,-0.54,10.1,-0.22,-0.09,0.11,0.26
-9.91,0.82,-0.43,-10.04,0.58,-0.52,10.07,0.13,0.24,0.09,0.29
-9.79,0.55,-0.47,-9.99,0.57,-0.51,10.02,0.2,-0.02,0.04,0.21
-10.02,0.47,0.19,-10,0.55,-0.37,10.02,-0.03,-0.08,0.56,0.57
-10.1,0.23,0.39,-10.02,0.49,-0.22,10.03,-0.08,-0.25,0.61,0.66
-9.87,0.82,0.43,-9.99,0.55,-0.09,10,0.12,0.27,0.52,0.59
-10.22,0.23,0.58,-10.03,0.49,0.05,10.05,-0.18,-0.26,0.54,0.62
-9.94,0.43,0.12,-10.02,0.48,0.06,10.03,0.07,-0.05,0.06,0.1
-9.83,0.55,0.39,-9.98,0.49,0.13,9.99,0.15,0.06,0.26,0.31
-10.14,0.7,0.12,-10.01,0.53,0.13,10.03,-0.13,0.17,-0.01,0.21
-10.14,0.19,0.7,-10.04,0.47,0.24,10.05,-0.1,-0.27,0.46,0.54
-10.26,0.31,1.17,-10.08,0.43,0.43,10.1,-0.18,-0.12,0.74,0.77
-9.87,0.47,0.04,-10.04,0.44,0.35,10.05,0.17,0.03,-0.31,0.35
-9.94,0.82,-0.23,-10.02,0.52,0.23,10.04,0.07,0.3,-0.47,0.56
-10.02,0.16,0.78,-10.02,0.44,0.34,10.04,0,-0.29,0.44,0.52
-10.14,0.27,0.08,-10.04,0.41,0.29,10.06,-0.1,-0.14,-0.21,0.27
-9.91,0.62,-0.08,-10.02,0.45,0.22,10.03,0.11,0.17,-0.29,0.36
-10.1,0.39,-0.12,-10.03,0.44,0.15,10.04,-0.07,-0.05,-0.27,0.28
-10.1,0.62,0.62,-10.05,0.48,0.24,10.06,-0.05,0.15,0.38,0.41
-10.18,0.31,1.25,-10.07,0.44,0.44,10.09,-0.11,-0.13,0.8,0.82
-10.02,0.35,1.21,-10.06,0.43,0.6,10.09,0.04,-0.07,0.61,0.62
-9.67,0.74,1.13,-9.98,0.49,0.7,10.02,0.31,0.25,0.43,0.59
-10.22,0.19,0.7,-10.03,0.43,0.7,10.07,-0.19,-0.23,0,0.3
-10.34,0.19,0.94,-10.09,0.38,0.75,10.13,-0.24,-0.19,0.19,0.36
-9.79,0.12,0.58,-10.03,0.33,0.72,10.06,0.24,-0.21,-0.13,0.35
-9.87,0.82,-0.12,-10,0.43,0.55,10.02,0.13,0.39,-0.67,0.78
-10.37,0.55,0.43,-10.07,0.45,0.53,10.1,-0.3,0.09,-0.1,0.33
-10.06,0.66,-0.12,-10.07,0.49,0.4,10.09,0.01,0.17,-0.51,0.54
-10.22,0.43,0.04,-10.1,0.48,0.33,10.12,-0.12,-0.05,-0.29,0.31
-10.18,0.39,0.16,-10.12,0.46,0.29,10.13,-0.06,-0.07,-0.14,0.17
-9.91,0.7,0.16,-10.07,0.51,0.26,10.09,0.17,0.19,-0.11,0.28
-9.98,0.39,0.19,-10.06,0.49,0.25,10.07,0.07,-0.1,-0.06,0.13
-10.1,0.51,0.35,-10.07,0.49,0.27,10.08,-0.04,0.02,0.08,0.09
-9.94,0.58,-0.04,-10.04,0.51,0.21,10.06,0.1,0.08,-0.25,0.28
-10.18,0.31,0.04,-10.07,0.47,0.17,10.08,-0.11,-0.16,-0.14,0.24
-9.94,0.39,0.35,-10.04,0.45,0.21,10.06,0.1,-0.06,0.14,0.18
-9.94,0.35,0.62,-10.02,0.43,0.29,10.04,0.08,-0.08,0.33,0.35
-10.3,0.23,-0.08,-10.08,0.39,0.22,10.09,-0.22,-0.16,-0.3,0.4
-10.02,0.43,0.27,-10.07,0.4,0.23,10.08,0.04,0.03,0.04,0.07
-10.1,0.58,-0.27,-10.07,0.44,0.13,10.08,-0.03,0.15,-0.4,0.43
-10.22,0.16,-0.08,-10.1,0.38,0.09,10.11,-0.12,-0.23,-0.17,0.3
-9.98,0.23,0.86,-10.08,0.35,0.24,10.09,0.1,-0.12,0.62,0.63
-9.98,0.43,-0.16,-10.06,0.37,0.16,10.07,0.08,0.06,-0.32,0.33
-10.26,0.55,-0.12,-10.1,0.4,0.11,10.11,-0.16,0.14,-0.22,0.31
-10.02,0.58,0.19,-10.08,0.44,0.12,10.09,0.06,0.15,0.07,0.17
-9.98,0.47,0,-10.06,0.45,0.1,10.07,0.08,0.02,-0.1,0.13
-10.18,0.47,0.27,-10.09,0.45,0.13,10.1,-0.09,0.02,0.14,0.17
-10.1,0.19,0.51,-10.09,0.4,0.21,10.1,-0.01,-0.2,0.3,0.36
-9.94,0.55,0.19,-10.06,0.43,0.21,10.07,0.12,0.12,-0.01,0.17
-10.06,0.47,0,-10.06,0.44,0.16,10.07,0,0.03,-0.16,0.17
-10.22,0.19,-0.27,-10.09,0.39,0.08,10.1,-0.13,-0.19,-0.35,0.42
-9.87,0.66,0.47,-10.05,0.44,0.16,10.06,0.18,0.22,0.31,0.42
-10.22,0.51,-0.04,-10.08,0.46,0.12,10.09,-0.14,0.05,-0.16,0.21
-10.1,0.31,0.55,-10.09,0.43,0.2,10.1,-0.02,-0.11,0.34,0.36
-9.83,0.35,0.12,-10.03,0.41,0.19,10.04,0.21,-0.06,-0.07,0.23
-10.18,0.51,-0.7,-10.06,0.43,0.01,10.07,-0.12,0.08,-0.71,0.72
-9.98,0.27,0.58,-10.05,0.4,0.12,10.06,0.06,-0.13,0.46,0.48
-9.91,0.43,-0.12,-10.02,0.41,0.08,10.03,0.11,0.02,-0.19,0.22
-10.22,0.39,-0.16,-10.06,0.4,0.03,10.07,-0.16,-0.01,-0.18,0.24
-9.87,0.62,0.12,-10.02,0.45,0.05,10.03,0.15,0.18,0.07,0.24
-10.14,0.51,-0.39,-10.04,0.46,-0.04,10.05,-0.1,0.05,-0.35,0.37
-10.1,0.43,-0.04,-10.06,0.45,-0.04,10.07,-0.05,-0.02,0,0.05
-10.02,0.55,0.27,-10.05,0.47,0.02,10.06,0.03,0.07,0.25,0.26
-9.91,0.62,0.19,-10.02,0.5,0.06,10.03,0.11,0.12,0.14,0.22
-10.26,0.19,0.04,-10.07,0.44,0.05,10.08,-0.19,-0.25,-0.01,0.31
-10.22,0.23,-0.08,-10.1,0.4,0.03,10.11,-0.12,-0.17,-0.11,0.23
-9.98,0.19,0.43,-10.08,0.36,0.11,10.08,0.09,-0.16,0.32,0.37
-9.87,0.86,0.27,-10.03,0.46,0.14,10.04,0.17,0.4,0.13,0.45
-10.22,0.23,-0.31,-10.07,0.41,0.05,10.08,-0.15,-0.18,-0.36,0.43
-10.18,0.31,0.55,-10.09,0.39,0.15,10.1,-0.09,-0.08,0.4,0.41
-9.71,0.74,-0.04,-10.02,0.46,0.11,10.03,0.3,0.28,-0.15,0.44
-10.14,0.39,-0.39,-10.04,0.45,0.01,10.05,-0.1,-0.06,-0.4,0.42
-10.34,0.55,-1.09,-10.1,0.47,-0.21,10.11,-0.24,0.08,-0.88,0.92
-9.91,0.16,-0.62,-10.06,0.41,-0.29,10.07,0.15,-0.25,-0.33,0.44
-10.26,0.23,-0.35,-10.1,0.37,-0.3,10.11,-0.16,-0.14,-0.05,0.21
-9.98,0.55,-0.7,-10.08,0.41,-0.38,10.09,0.09,0.14,-0.32,0.36
-10.02,0.47,-0.55,-10.07,0.42,-0.42,10.08,0.04,0.05,-0.13,0.15
-10.14,0.27,-0.35,-10.08,0.39,-0.4,10.1,-0.06,-0.12,0.05,0.14
-9.87,0.55,0.66,-10.04,0.42,-0.19,10.05,0.17,0.13,0.85,0.88
-10.3,0.58,0.39,-10.09,0.45,-0.07,10.1,-0.21,0.13,0.46,0.52
-10.06,0.27,0.51,-10.08,0.42,0.04,10.09,0.02,-0.14,0.46,0.49
-9.94,0.35,0.39,-10.06,0.4,0.11,10.07,0.11,-0.05,0.28,0.3
-10.06,0.58,-0.08,-10.06,0.44,0.07,10.07,0,0.14,-0.15,0.21
-10.34,0.35,0.35,-10.11,0.42,0.13,10.12,-0.22,-0.07,0.22,0.32
-9.98,0.43,0.82,-10.09,0.42,0.27,10.1,0.1,0.01,0.55,0.56
-10.34,0.7,-0.94,-10.14,0.48,0.03,10.15,-0.2,0.22,-0.96,1.01
-9.98,0.43,-0.78,-10.11,0.47,-0.13,10.12,0.12,-0.04,-0.65,0.66
-9.87,0.47,-0.16,-10.06,0.47,-0.14,10.07,0.19,0,-0.02,0.19
-10.1,0.62,-0.82,-10.07,0.5,-0.27,10.08,-0.03,0.12,-0.54,0.56
-10.02,0.62,-0.78,-10.06,0.52,-0.38,10.08,0.04,0.1,-0.4,0.42
-9.83,0.51,-0.04,-10.01,0.52,-0.31,10.03,0.18,-0.01,0.27,0.33
-10.45,0.58,-0.47,-10.1,0.53,-0.34,10.12,-0.35,0.05,-0.13,0.38
-9.71,0.7,0.19,-10.02,0.57,-0.23,10.04,0.31,0.13,0.43,0.55
-10.34,0.16,0.51,-10.08,0.49,-0.09,10.1,-0.25,-0.33,0.59,0.72
-10.26,0.78,0.47,-10.12,0.54,0.03,10.13,-0.14,0.24,0.44,0.52
-9.75,0.74,0.27,-10.05,0.58,0.07,10.06,0.3,0.16,0.2,0.39
-10.34,0.39,0.04,-10.1,0.54,0.07,10.12,-0.23,-0.15,-0.03,0.28
-10.18,0.16,-0.23,-10.12,0.47,0.01,10.13,-0.06,-0.31,-0.24,0.4
-10.1,0.27,-0.31,-10.11,0.43,-0.06,10.12,0.01,-0.16,-0.26,0.3
-9.75,0.27,0.7,-10.04,0.4,0.1,10.05,0.29,-0.12,0.61,0.68
-10.22,0.86,0.31,-10.08,0.49,0.14,10.09,-0.14,0.37,0.17,0.43
-10.49,0.47,0.16,-10.16,0.49,0.14,10.17,-0.33,-0.02,0.01,0.33
-10.41,0,0,-10.21,0.39,0.11,10.22,-0.2,-0.39,-0.11,0.45
-9.87,0.55,-0.12,-10.14,0.42,0.07,10.15,0.27,0.13,-0.18,0.35
-10.45,0.47,0,-10.2,0.43,0.05,10.21,-0.25,0.04,-0.05,0.26
-9.52,0.35,-0.04,-10.07,0.41,0.04,10.07,0.55,-0.06,-0.07,0.56
-10.69,0.74,-0.31,-10.19,0.48,-0.03,10.2,-0.5,0.26,-0.28,0.63
-9.83,0.55,0.23,-10.12,0.49,0.02,10.13,0.29,0.05,0.21,0.36
-10.14,0.43,-0.47,-10.12,0.48,-0.08,10.13,-0.02,-0.05,-0.39,0.39
-10.06,0.39,-0.08,-10.11,0.46,-0.08,10.12,0.05,-0.07,0,0.09
-10.18,0.7,-0.43,-10.12,0.51,-0.15,10.14,-0.06,0.19,-0.28,0.34
-10.06,0.31,0.55,-10.11,0.47,-0.01,10.12,0.05,-0.16,0.56,0.58
-10.22,0.74,0.39,-10.13,0.52,0.07,10.15,-0.09,0.22,0.32,0.4
-10.18,0.47,0.08,-10.14,0.51,0.07,10.16,-0.04,-0.05,0.01,0.06
-9.94,0.12,-0.55,-10.1,0.43,-0.05,10.11,0.16,-0.32,-0.49,0.61
-9.05,0.27,0,-9.89,0.4,-0.04,9.9,0.84,-0.13,0.04,0.85
-10.3,-0.08,-0.19,-9.97,0.31,-0.07,9.98,-0.32,-0.38,-0.12,0.52
-10.3,0.47,-0.35,-10.04,0.34,-0.13,10.04,-0.26,0.13,-0.22,0.37
-9.36,0.23,0.39,-9.9,0.32,-0.02,9.91,0.54,-0.08,0.41,0.69
-10.61,0.51,0.94,-10.04,0.36,0.17,10.05,-0.56,0.15,0.77,0.97
-9.91,1.4,0.7,-10.02,0.57,0.27,10.04,0.11,0.84,0.43,0.95
-9.24,1.44,0.35,-9.86,0.74,0.29,9.89,0.62,0.7,0.06,0.94
-10.69,0.58,0.08,-10.03,0.71,0.25,10.05,-0.66,-0.12,-0.17,0.69
-9.63,1.01,-0.16,-9.95,0.77,0.17,9.98,0.31,0.24,-0.32,0.51
-10.53,0.62,0.16,-10.06,0.74,0.16,10.09,-0.47,-0.12,-0.01,0.48
-10.02,0.78,0.39,-10.06,0.75,0.21,10.09,0.03,0.03,0.18,0.19
-9.59,0.39,0.86,-9.96,0.68,0.34,9.99,0.37,-0.29,0.52,0.7
-9.98,0.23,1.17,-9.97,0.59,0.51,10,-0.02,-0.35,0.66,0.75
-9.83,0.43,0.78,-9.94,0.56,0.56,9.97,0.11,-0.13,0.22,0.28
-10.37,0.04,0.94,-10.03,0.45,0.64,10.06,-0.35,-0.41,0.3,0.62
-10.22,0.31,0.35,-10.06,0.42,0.58,10.09,-0.15,-0.11,-0.23,0.3
-10.18,0.23,-0.9,-10.09,0.39,0.28,10.1,-0.09,-0.15,-1.18,1.19
-9.87,0.04,-0.19,-10.04,0.32,0.19,10.05,0.18,-0.28,-0.38,0.51
-10.26,0.12,0.08,-10.09,0.28,0.17,10.09,-0.17,-0.16,-0.09,0.25
-10.41,0.12,-0.39,-10.15,0.25,0.05,10.15,-0.26,-0.13,-0.44,0.53
-9.71,0.62,-0.74,-10.06,0.32,-0.1,10.07,0.35,0.3,-0.64,0.79
-9.83,0.58,0.86,-10.02,0.37,0.09,10.02,0.19,0.21,0.77,0.82
-10.18,0.9,0.74,-10.05,0.48,0.22,10.06,-0.13,0.42,0.52,0.68
-9.91,0.78,0.19,-10.02,0.54,0.21,10.04,0.11,0.24,-0.02,0.27
-10.26,0.04,0.43,-10.07,0.44,0.26,10.08,-0.19,-0.4,0.17,0.47
-10.41,0.04,0.12,-10.14,0.36,0.23,10.15,-0.28,-0.32,-0.11,0.44
-10.1,0.9,0.74,-10.13,0.47,0.33,10.15,0.03,0.43,0.41,0.59
-9.71,0.62,0.66,-10.05,0.5,0.4,10.07,0.33,0.13,0.27,0.45
-10.1,0.39,0.19,-10.06,0.48,0.36,10.07,-0.04,-0.09,-0.16,0.19
-10.69,0.27,0.98,-10.18,0.44,0.48,10.2,-0.5,-0.16,0.49,0.72
-10.1,0.35,0.62,-10.17,0.42,0.51,10.19,0.07,-0.07,0.11,0.15
-9.87,0.47,0.16,-10.11,0.43,0.44,10.13,0.24,0.04,-0.28,0.37
-10.73,0.47,0.27,-10.23,0.44,0.41,10.25,-0.49,0.03,-0.13,0.51
-9.91,0.31,0.47,-10.17,0.41,0.42,10.18,0.26,-0.1,0.05,0.28
-9.94,0.27,-0.31,-10.12,0.38,0.27,10.13,0.18,-0.11,-0.58,0.62
-10.3,0.94,-0.04,-10.16,0.49,0.21,10.17,-0.14,0.44,-0.25,0.53
-10.18,0.31,-0.23,-10.16,0.46,0.12,10.17,-0.02,-0.15,-0.36,0.38
-10.06,0.51,-0.12,-10.14,0.47,0.07,10.15,0.08,0.04,-0.19,0.21
-10.14,0.16,0.39,-10.14,0.41,0.14,10.15,0,-0.25,0.25,0.36
-10.06,0.66,-0.7,-10.13,0.46,-0.03,10.14,0.06,0.21,-0.67,0.7
-10.1,0.47,-0.16,-10.12,0.46,-0.06,10.13,0.02,0.01,-0.1,0.1
-9.94,0.62,-0.16,-10.09,0.49,-0.08,10.1,0.14,0.13,-0.08,0.21
-10.14,0.62,-0.35,-10.1,0.52,-0.13,10.11,-0.04,0.11,-0.22,0.25
-10.18,0.27,0.16,-10.11,0.47,-0.07,10.12,-0.07,-0.2,0.23,0.31
-10.02,0.66,0.12,-10.09,0.51,-0.04,10.11,0.07,0.15,0.15,0.23
-10.1,0.66,-0.16,-10.1,0.54,-0.06,10.11,0,0.12,-0.1,0.16
-9.98,0.31,0.7,-10.07,0.49,0.09,10.09,0.09,-0.18,0.61,0.64
-10.1,0.47,0.12,-10.08,0.49,0.1,10.09,-0.02,-0.02,0.02,0.04
-10.06,0.51,-0.23,-10.08,0.49,0.03,10.09,0.01,0.01,-0.27,0.27
-10.14,0.31,-0.27,-10.09,0.46,-0.03,10.1,-0.05,-0.14,-0.24,0.29
-10.1,0.43,0.16,-10.09,0.45,0.01,10.1,-0.01,-0.02,0.15,0.15
-10.02,0.78,0.08,-10.08,0.52,0.02,10.09,0.05,0.26,0.06,0.27
-10.02,0.66,-0.39,-10.07,0.55,-0.06,10.08,0.04,0.12,-0.33,0.35
-10.18,0.27,-0.16,-10.09,0.49,-0.08,10.1,-0.09,-0.22,-0.08,0.25
-9.91,0.62,-0.35,-10.05,0.52,-0.13,10.07,0.15,0.11,-0.22,0.28
-10.1,0.78,-0.19,-10.06,0.57,-0.15,10.08,-0.04,0.21,-0.05,0.22
-10.06,0.31,0.16,-10.06,0.52,-0.09,10.08,0,-0.21,0.24,0.32
-10.02,0.86,-0.39,-10.05,0.59,-0.15,10.07,0.03,0.27,-0.24,0.37
-9.91,0.55,0.27,-10.02,0.58,-0.06,10.04,0.12,-0.03,0.34,0.36
-10.1,0.43,-0.23,-10.04,0.55,-0.1,10.06,-0.06,-0.12,-0.14,0.19
-10.22,0.08,0,-10.08,0.45,-0.08,10.09,-0.14,-0.38,0.08,0.41
-10.06,0.82,-0.35,-10.07,0.53,-0.13,10.09,0.01,0.29,-0.22,0.36
-10.18,0.43,0,-10.09,0.51,-0.11,10.11,-0.08,-0.08,0.11,0.16
-10.02,0.47,-0.08,-10.08,0.5,-0.1,10.09,0.06,-0.03,0.02,0.07
-10.02,0.66,0,-10.07,0.53,-0.08,10.08,0.05,0.13,0.08,0.16
-10.14,0.62,0.51,-10.08,0.55,0.04,10.1,-0.06,0.07,0.47,0.48
-9.83,0.35,0.04,-10.03,0.51,0.04,10.04,0.2,-0.16,0,0.26
-10.1,0.58,-0.19,-10.05,0.53,-0.01,10.06,-0.06,0.06,-0.19,0.2
-10.18,0.19,0.16,-10.07,0.46,0.02,10.08,-0.11,-0.26,0.13,0.31
-9.91,0.55,0.23,-10.04,0.48,0.07,10.05,0.13,0.07,0.17,0.23
-9.91,0.66,0.12,-10.01,0.51,0.08,10.03,0.11,0.15,0.04,0.19
-10.14,0.39,-0.47,-10.04,0.49,-0.03,10.05,-0.1,-0.1,-0.44,0.46
-10.37,0.19,-0.08,-10.11,0.43,-0.04,10.11,-0.27,-0.24,-0.04,0.36
-10.14,0.27,0,-10.11,0.4,-0.03,10.12,-0.03,-0.13,0.03,0.13
-9.87,0.47,-0.08,-10.06,0.41,-0.04,10.07,0.2,0.06,-0.04,0.21
-10.34,0.16,-0.08,-10.12,0.36,-0.05,10.12,-0.22,-0.21,-0.03,0.3
-10.06,0.7,0.27,-10.11,0.43,0.02,10.12,0.04,0.27,0.26,0.38
-10.22,0.35,-0.04,-10.13,0.41,0,10.14,-0.09,-0.06,-0.04,0.12
-10.3,0.16,-0.35,-10.16,0.36,-0.07,10.17,-0.13,-0.21,-0.28,0.38
-9.87,0.62,0.12,-10.1,0.41,-0.03,10.11,0.24,0.21,0.15,0.35
-10.18,0.82,-0.27,-10.12,0.5,-0.08,10.13,-0.06,0.32,-0.19,0.38
-10.02,0.51,-0.08,-10.1,0.5,-0.08,10.11,0.08,0.01,0,0.08
-9.94,0.47,0.35,-10.07,0.49,0.01,10.08,0.12,-0.02,0.34,0.37
-10.06,0.66,-0.08,-10.07,0.53,-0.01,10.08,0.01,0.14,-0.07,0.15
-10.22,0.19,-0.16,-10.1,0.46,-0.04,10.11,-0.12,-0.26,-0.12,0.31
-9.87,0.74,-0.27,-10.05,0.52,-0.09,10.06,0.18,0.22,-0.19,0.35
-10.18,0.27,0.16,-10.08,0.47,-0.04,10.09,-0.1,-0.19,0.19,0.29
-10.18,0.78,-0.94,-10.1,0.53,-0.22,10.11,-0.08,0.25,-0.72,0.77
-10.14,0.47,0.04,-10.11,0.52,-0.17,10.12,-0.03,-0.05,0.2,0.21
-9.83,0.58,0.08,-10.05,0.53,-0.12,10.06,0.22,0.05,0.2,0.3
-9.87,0.39,0.19,-10.01,0.5,-0.05,10.03,0.15,-0.11,0.25,0.31
-10.34,0.19,-0.19,-10.08,0.44,-0.08,10.09,-0.26,-0.25,-0.11,0.37
-10.14,0.58,0.12,-10.09,0.47,-0.04,10.1,-0.05,0.11,0.16,0.2
-9.79,0.51,-0.35,-10.03,0.48,-0.1,10.04,0.24,0.03,-0.25,0.35
-9.98,0.86,-0.62,-10.02,0.55,-0.21,10.04,0.04,0.3,-0.42,0.52
-9.94,0.19,0.16,-10.01,0.48,-0.14,10.02,0.06,-0.29,0.29,0.41
-10.1,0.43,0.31,-10.02,0.47,-0.05,10.04,-0.08,-0.04,0.36,0.37
-10.06,0.62,-0.39,-10.03,0.5,-0.11,10.05,-0.03,0.12,-0.28,0.3
-10.1,0.43,0.35,-10.05,0.49,-0.02,10.06,-0.06,-0.06,0.37,0.38
-9.98,0.51,0.35,-10.03,0.49,0.05,10.05,0.05,0.02,0.3,0.3
-10.22,0.58,-0.55,-10.07,0.51,-0.07,10.08,-0.15,0.08,-0.48,0.51
-10.22,0.51,0.08,-10.1,0.51,-0.04,10.11,-0.12,0,0.12,0.17
-10.06,0.47,0.66,-10.09,0.5,0.1,10.11,0.03,-0.03,0.56,0.56
-9.91,0.51,-0.16,-10.06,0.5,0.05,10.07,0.15,0,-0.21,0.25
-10.22,0.35,-0.16,-10.09,0.47,0.01,10.1,-0.13,-0.12,-0.17,0.24
-9.87,0.7,-0.04,-10.04,0.52,0,10.06,0.18,0.18,-0.04,0.26
-10.06,0.66,0.04,-10.05,0.55,0.01,10.06,-0.01,0.12,0.03,0.12
-10.18,0.39,-0.08,-10.07,0.52,-0.01,10.09,-0.11,-0.13,-0.07,0.18
-10.06,0.51,0.39,-10.07,0.51,0.07,10.08,0.01,-0.01,0.32,0.32
-9.94,0.55,0.27,-10.05,0.52,0.11,10.06,0.1,0.03,0.16,0.19
-10.06,0.31,-0.27,-10.05,0.48,0.03,10.06,-0.01,-0.17,-0.31,0.35
-10.26,0.31,0.43,-10.09,0.45,0.11,10.1,-0.17,-0.13,0.32,0.38
-9.94,0.74,-0.43,-10.06,0.5,0,10.07,0.12,0.24,-0.43,0.51
-10.02,0.35,0.16,-10.05,0.47,0.03,10.07,0.03,-0.12,0.12,0.18
-10.06,0.7,-0.55,-10.06,0.52,-0.08,10.07,-0.01,0.18,-0.46,0.5
-10.26,0.47,-0.19,-10.1,0.51,-0.1,10.11,-0.16,-0.04,-0.09,0.19
-9.83,0.55,0.04,-10.04,0.52,-0.08,10.06,0.21,0.03,0.11,0.24
-10.06,0.7,-0.51,-10.05,0.55,-0.16,10.06,-0.02,0.15,-0.35,0.38
-10.26,0.39,-0.16,-10.09,0.52,-0.16,10.1,-0.17,-0.13,0,0.21
-10.18,0.55,0.31,-10.11,0.53,-0.07,10.12,-0.07,0.02,0.38,0.39
-9.75,0.51,0.66,-10.04,0.52,0.08,10.05,0.29,-0.02,0.58,0.65
-10.1,0.62,-0.55,-10.05,0.54,-0.05,10.06,-0.05,0.08,-0.5,0.51
-9.94,0.47,0.12,-10.03,0.53,-0.01,10.04,0.08,-0.06,0.13,0.17
-10.02,0.74,-0.27,-10.03,0.57,-0.06,10.04,0,0.17,-0.21,0.27
-9.67,0.78,0.23,-9.96,0.61,-0.01,9.97,0.28,0.17,0.24,0.41
-10.22,0.35,0.47,-10.01,0.56,0.09,10.02,-0.21,-0.21,0.38,0.48
-9.98,0.78,0.27,-10,0.6,0.13,10.02,0.02,0.18,0.15,0.23
-9.94,0.9,-0.08,-9.99,0.66,0.09,10.01,0.05,0.23,-0.16,0.29
-10.14,0.74,-0.43,-10.02,0.68,-0.02,10.04,-0.12,0.06,-0.41,0.43
-10.22,0.16,0.43,-10.06,0.57,0.07,10.08,-0.16,-0.42,0.36,0.57
-10.02,0.39,0.43,-10.05,0.54,0.14,10.07,0.03,-0.15,0.29,0.32
-10.34,0.39,-0.23,-10.11,0.51,0.07,10.12,-0.23,-0.12,-0.3,0.39
-10.22,0.27,0.39,-10.13,0.46,0.13,10.14,-0.09,-0.19,0.26,0.33
-9.83,0.47,0.08,-10.07,0.46,0.12,10.08,0.24,0.01,-0.04,0.25
-9.98,0.58,0.16,-10.05,0.49,0.13,10.07,0.07,0.1,0.03,0.12
-10.34,0.27,-0.19,-10.11,0.44,0.06,10.12,-0.23,-0.17,-0.26,0.38
-9.79,0.74,0.19,-10.05,0.5,0.09,10.06,0.26,0.24,0.11,0.37
-10.06,0.7,-0.19,-10.05,0.54,0.03,10.06,-0.01,0.16,-0.23,0.28
-10.34,0.19,-0.7,-10.11,0.47,-0.11,10.12,-0.23,-0.28,-0.59,0.69
-9.63,0.86,-0.12,-10.01,0.55,-0.11,10.03,0.38,0.31,0,0.49
-10.14,0.51,0.47,-10.04,0.54,0,10.05,-0.1,-0.03,0.47,0.48
-9.91,0.47,0.12,-10.01,0.53,0.02,10.02,0.1,-0.06,0.09,0.15
-9.79,0.74,-0.23,-9.97,0.57,-0.03,9.98,0.18,0.17,-0.21,0.32
-10.22,0.58,-0.35,-10.02,0.57,-0.09,10.03,-0.2,0.01,-0.26,0.33
-9.91,0.62,0.04,-9.99,0.58,-0.07,10.01,0.09,0.04,0.1,0.14
-10.18,0.35,0.19,-10.03,0.54,-0.01,10.05,-0.15,-0.19,0.21,0.32
-9.75,0.58,-0.16,-9.98,0.55,-0.04,9.99,0.23,0.04,-0.11,0.26
-9.91,0.94,-0.23,-9.96,0.62,-0.08,9.98,0.06,0.31,-0.15,0.35
-9.98,1.09,-1.21,-9.97,0.72,-0.31,10,-0.02,0.37,-0.9,0.98
-10.06,0.82,-1.01,-9.99,0.74,-0.45,10.02,-0.08,0.08,-0.57,0.58
-10.06,0.78,-0.35,-10,0.75,-0.43,10.04,-0.06,0.03,0.08,0.1
-10.02,0.66,-0.66,-10,0.73,-0.48,10.04,-0.02,-0.07,-0.19,0.2
-9.98,0.16,-0.39,-10,0.61,-0.46,10.03,0.02,-0.46,0.07,0.46
-9.98,0.43,-0.27,-10,0.58,-0.42,10.02,0.01,-0.15,0.15,0.21
-10.1,0.47,-0.27,-10.02,0.56,-0.39,10.04,-0.08,-0.09,0.12,0.17
-10.1,0.62,-0.94,-10.03,0.57,-0.5,10.06,-0.07,0.05,-0.44,0.44
-10.06,0.08,-0.55,-10.04,0.47,-0.51,10.06,-0.02,-0.39,-0.04,0.4
-9.79,0.66,-0.74,-9.99,0.51,-0.56,10.02,0.2,0.15,-0.19,0.31
-10.26,0.31,-0.47,-10.04,0.47,-0.54,10.07,-0.21,-0.16,0.07,0.27
-9.98,0.39,-0.51,-10.03,0.45,-0.53,10.06,0.05,-0.06,0.03,0.08
-9.91,0.47,-0.16,-10.01,0.46,-0.46,10.03,0.1,0.01,0.3,0.32
-10.61,0.82,0.04,-10.13,0.53,-0.36,10.15,-0.48,0.29,0.4,0.69
-9.59,0.78,-0.78,-10.02,0.58,-0.44,10.05,0.43,0.2,-0.34,0.58
-10.18,0.43,-0.35,-10.05,0.55,-0.42,10.08,-0.13,-0.12,0.07,0.19
-10.18,0.78,-0.78,-10.08,0.6,-0.5,10.11,-0.1,0.18,-0.28,0.35
-9.94,0.9,-0.23,-10.05,0.66,-0.44,10.08,0.11,0.24,0.21,0.34
-9.94,0.55,-0.31,-10.03,0.63,-0.42,10.06,0.08,-0.09,0.1,0.16
-10.14,1.01,0.08,-10.05,0.71,-0.32,10.08,-0.09,0.3,0.4,0.51
-10.26,0.43,0.82,-10.09,0.65,-0.09,10.11,-0.16,-0.22,0.91,0.95
-9.75,1.17,0.58,-10.02,0.76,0.04,10.05,0.27,0.41,0.54,0.73
-10.26,0.94,0.27,-10.07,0.79,0.09,10.1,-0.19,0.14,0.18,0.3
-10.18,0.23,-0.35,-10.09,0.68,0,10.12,-0.09,-0.45,-0.35,0.58
-9.63,0.39,-0.19,-10,0.62,-0.04,10.02,0.37,-0.23,-0.16,0.46
-10.26,0.55,0.16,-10.05,0.61,0,10.07,-0.21,-0.06,0.15,0.26
-10.49,0.47,0.16,-10.14,0.58,0.03,10.16,-0.35,-0.11,0.12,0.39
-9.44,0.66,-0.55,-10,0.6,-0.08,10.02,0.56,0.07,-0.46,0.73
-9.79,0.66,-0.04,-9.96,0.61,-0.07,9.98,0.17,0.05,0.04,0.18
-10.61,0.98,0.04,-10.09,0.68,-0.05,10.11,-0.52,0.29,0.09,0.6
-9.71,0.62,0.12,-10.01,0.67,-0.02,10.03,0.3,-0.05,0.14,0.33
-9.98,0.55,-0.86,-10.01,0.65,-0.19,10.03,0.02,-0.1,-0.67,0.68
-10.3,0.9,-0.31,-10.06,0.7,-0.21,10.09,-0.23,0.2,-0.1,0.32
-9.91,0.08,-0.16,-10.03,0.57,-0.2,10.05,0.13,-0.49,0.04,0.51
-9.94,0.27,-0.9,-10.02,0.51,-0.34,10.03,0.07,-0.24,-0.56,0.61
-10.34,0.66,-0.39,-10.08,0.54,-0.35,10.1,-0.26,0.12,-0.04,0.29
-10.1,0.08,-0.78,-10.08,0.45,-0.44,10.1,-0.02,-0.37,-0.34,0.51
-9.67,0.43,-0.86,-10,0.45,-0.52,10.02,0.33,-0.02,-0.34,0.47
-10.37,0.23,-1.05,-10.08,0.4,-0.63,10.1,-0.3,-0.17,-0.43,0.55
-10.22,0.35,-0.55,-10.1,0.39,-0.61,10.13,-0.11,-0.04,0.06,0.14
-9.79,0.35,-0.27,-10.04,0.38,-0.54,10.06,0.25,-0.03,0.27,0.37
-10.1,0,-0.35,-10.05,0.31,-0.5,10.07,-0.05,-0.31,0.15,0.35
-10.37,0.51,-0.35,-10.12,0.35,-0.47,10.13,-0.26,0.16,0.12,0.33
-9.44,-0.23,-0.78,-9.98,0.23,-0.54,10,0.54,-0.47,-0.24,0.76
-10.3,-0.12,-0.94,-10.04,0.16,-0.62,10.06,-0.25,-0.28,-0.32,0.49
-10.45,-0.51,-0.43,-10.13,0.03,-0.58,10.14,-0.33,-0.53,0.15,0.64
-9.98,-0.35,-0.86,-10.1,-0.05,-0.63,10.12,0.11,-0.3,-0.22,0.39
-9.98,-0.12,-1.6,-10.07,-0.06,-0.83,10.11,0.09,-0.06,-0.77,0.78
-10.41,-0.51,-0.98,-10.14,-0.15,-0.86,10.18,-0.27,-0.36,-0.12,0.46
-9.94,-0.04,-0.35,-10.1,-0.13,-0.76,10.13,0.16,0.09,0.4,0.44
-10.49,-0.16,0.04,-10.18,-0.13,-0.6,10.2,-0.31,-0.02,0.64,0.71
-9.75,-0.16,-1.25,-10.09,-0.14,-0.73,10.12,0.34,-0.02,-0.52,0.62
-10.73,0.12,-2.3,-10.22,-0.09,-1.04,10.27,-0.5,0.2,-1.26,1.37
-10.3,0.31,-0.55,-10.24,-0.01,-0.94,10.28,-0.06,0.32,0.4,0.51
-10.1,0.51,0,-10.21,0.1,-0.75,10.24,0.11,0.41,0.75,0.87
-9.71,0.78,-0.12,-10.11,0.23,-0.63,10.13,0.4,0.55,0.51,0.85
-10.49,1.6,-0.43,-10.19,0.51,-0.59,10.21,-0.31,1.09,0.16,1.15
-10.14,1.09,-0.7,-10.18,0.62,-0.61,10.21,0.04,0.47,-0.09,0.48
-10.06,1.25,-0.62,-10.15,0.75,-0.61,10.2,0.09,0.5,-0.01,0.51
-10.18,2.07,0.51,-10.16,1.01,-0.39,10.22,-0.02,1.06,0.9,1.38
-9.09,2.03,0.04,-9.94,1.22,-0.3,10.02,0.86,0.81,0.34,1.23
-10.41,1.44,0.51,-10.04,1.26,-0.14,10.12,-0.37,0.18,0.65,0.77
-10.41,0.74,1.83,-10.11,1.16,0.25,10.18,-0.3,-0.42,1.58,1.66
-10.18,1.17,0.74,-10.13,1.16,0.35,10.2,-0.05,0.01,0.39,0.39
-9.59,1.17,0.23,-10.02,1.16,0.33,10.09,0.43,0.01,-0.09,0.44
-9.67,1.01,0.9,-9.95,1.13,0.44,10.02,0.28,-0.12,0.46,0.55
-10.18,0.55,0.16,-10,1.01,0.38,10.05,-0.18,-0.47,-0.23,0.55
-10.65,0.27,1.05,-10.13,0.87,0.52,10.18,-0.52,-0.59,0.53,0.95
-9.83,0.9,0.7,-10.07,0.87,0.55,10.12,0.24,0.02,0.15,0.28
-9.36,0.58,1.64,-9.93,0.82,0.77,9.99,0.57,-0.23,0.87,1.06
-11.08,0.35,1.75,-10.16,0.72,0.97,10.23,-0.92,-0.37,0.79,1.27
-9.01,0.55,0.51,-9.93,0.69,0.88,9.99,0.92,-0.14,-0.37,1
-9.48,0.16,0.23,-9.84,0.58,0.75,9.88,0.36,-0.42,-0.51,0.76
-10.61,0.43,0.74,-9.99,0.55,0.75,10.03,-0.62,-0.12,-0.01,0.63
-9.79,0.74,0.51,-9.95,0.59,0.7,9.99,0.16,0.15,-0.19,0.29
-9.94,0.27,-0.16,-9.95,0.53,0.53,9.98,0,-0.25,-0.68,0.73
-10.18,0.43,-0.9,-10,0.51,0.24,10.01,-0.18,-0.08,-1.14,1.16
-10.06,0.78,-0.47,-10.01,0.56,0.1,10.02,-0.05,0.22,-0.57,0.61
-9.32,0.82,-0.39,-9.87,0.61,0,9.89,0.55,0.21,-0.39,0.71
-10.34,0.9,-0.74,-9.96,0.67,-0.15,9.99,-0.37,0.23,-0.59,0.74
-10.14,0.43,-0.23,-10,0.62,-0.16,10.02,-0.14,-0.19,-0.07,0.25
-10.37,0.27,-0.47,-10.07,0.55,-0.22,10.09,-0.3,-0.28,-0.24,0.48
-10.41,0.9,-0.43,-10.14,0.62,-0.27,10.16,-0.27,0.28,-0.16,0.42
-9.63,1.05,-0.62,-10.04,0.71,-0.34,10.07,0.41,0.35,-0.29,0.61
-10.18,1.09,-1.75,-10.07,0.78,-0.62,10.12,-0.11,0.31,-1.13,1.18
-10.34,0.74,-0.9,-10.12,0.78,-0.68,10.17,-0.21,-0.03,-0.22,0.31
-10.02,0.82,-1.6,-10.1,0.78,-0.86,10.17,0.08,0.03,-0.74,0.74
-10.06,1.13,-1.52,-10.09,0.85,-0.99,10.18,0.03,0.28,-0.53,0.6
-9.36,0.58,-1.29,-9.95,0.8,-1.05,10.03,0.59,-0.21,-0.24,0.67
-10.22,0.27,-0.82,-10,0.69,-1.01,10.08,-0.22,-0.42,0.19,0.51
-9.63,0.47,-1.37,-9.93,0.65,-1.08,10.01,0.29,-0.18,-0.29,0.45
-10.92,-0.23,-1.13,-10.13,0.47,-1.09,10.2,-0.79,-0.71,-0.04,1.06
-9.16,0.23,-2.89,-9.93,0.42,-1.45,10.05,0.77,-0.19,-1.44,1.64
-10.61,0.47,-1.4,-10.07,0.43,-1.44,10.18,-0.54,0.03,0.03,0.54
-10.65,0.98,0.51,-10.18,0.54,-1.05,10.25,-0.46,0.43,1.56,1.68
-11.15,0.7,0.9,-10.38,0.57,-0.66,10.42,-0.78,0.13,1.56,1.74
-10.3,0.58,0.66,-10.36,0.58,-0.4,10.39,0.07,0.01,1.06,1.06
-9.71,0.27,0.04,-10.23,0.52,-0.31,10.25,0.52,-0.24,0.35,0.67
-9.44,0.51,-0.51,-10.07,0.51,-0.35,10.09,0.63,-0.01,-0.16,0.65
-10.49,0.82,0.35,-10.16,0.57,-0.21,10.17,-0.33,0.24,0.56,0.7
-9.67,1.72,-0.19,-10.06,0.8,-0.21,10.09,0.39,0.91,0.01,0.99
-9.83,1.29,-0.66,-10.01,0.9,-0.3,10.06,0.19,0.39,-0.37,0.56
-12.4,1.01,-0.12,-10.49,0.92,-0.26,10.53,-1.91,0.09,0.14,1.92
-8.58,1.52,-1.05,-10.11,1.04,-0.42,10.17,1.53,0.48,-0.63,1.72
-10.1,2.07,-0.62,-10.11,1.25,-0.46,10.19,0.01,0.82,-0.16,0.84
-9.87,2.26,1.17,-10.06,1.45,-0.13,10.16,0.19,0.81,1.3,1.55
-9.94,1.29,-1.13,-10.04,1.42,-0.33,10.14,0.09,-0.13,-0.8,0.81
-9.71,0.86,-0.66,-9.97,1.31,-0.4,10.06,0.26,-0.45,-0.26,0.58
-10.18,1.87,-0.98,-10.01,1.42,-0.51,10.13,-0.17,0.45,-0.46,0.67
-8.62,1.68,-0.04,-9.73,1.47,-0.42,9.85,1.12,0.21,0.38,1.2
-10.37,1.6,-0.74,-9.86,1.5,-0.48,9.99,-0.51,0.1,-0.26,0.58
-10.18,1.6,-0.27,-9.93,1.52,-0.44,10.05,-0.25,0.08,0.17,0.32
-9.09,1.13,-0.7,-9.76,1.44,-0.49,9.88,0.67,-0.31,-0.21,0.77
-10.41,1.87,0.43,-9.89,1.53,-0.31,10.01,-0.52,0.35,0.74,0.97
-11.35,1.83,0.86,-10.18,1.59,-0.08,10.3,-1.17,0.25,0.93,1.52
-10.18,1.33,-1.05,-10.18,1.54,-0.27,10.3,0,-0.21,-0.78,0.81
-9.36,2.77,-0.58,-10.02,1.78,-0.33,10.18,0.66,0.99,-0.25,1.21
-10.37,2.69,0.82,-10.09,1.96,-0.1,10.28,-0.29,0.73,0.92,1.21
-8.42,1.95,0.39,-9.76,1.96,0,9.95,1.33,-0.01,0.39,1.39
-10.41,1.01,0.27,-9.89,1.77,0.05,10.04,-0.53,-0.76,0.22,0.95
-10.57,1.37,-0.62,-10.02,1.69,-0.08,10.17,-0.55,-0.33,-0.54,0.83
-8.89,2.26,-0.7,-9.8,1.8,-0.21,9.96,0.9,0.46,-0.49,1.13
-11.82,2.57,-1.01,-10.2,1.96,-0.37,10.39,-1.62,0.62,-0.65,1.85
-9.13,1.91,-0.58,-9.99,1.95,-0.41,10.18,0.86,-0.04,-0.17,0.88
-11.43,0.9,0.62,-10.27,1.74,-0.2,10.42,-1.15,-0.84,0.83,1.65
-9.44,-0.16,-1.09,-10.11,1.36,-0.38,10.21,0.67,-1.52,-0.71,1.8
-11.54,0.74,0.08,-10.39,1.24,-0.29,10.47,-1.15,-0.49,0.37,1.3
-9.01,0.51,0.23,-10.12,1.09,-0.19,10.18,1.11,-0.58,0.42,1.32
-10.57,0.94,-0.74,-10.21,1.06,-0.3,10.27,-0.36,-0.12,-0.44,0.59
-10.34,-0.86,-0.58,-10.23,0.68,-0.35,10.26,-0.1,-1.53,-0.23,1.55
-8.35,-0.74,-0.19,-9.86,0.39,-0.32,9.87,1.51,-1.13,0.13,1.89
-10.69,-1.52,-1.4,-10.02,0.01,-0.54,10.04,-0.66,-1.53,-0.87,1.88
-9.24,-0.27,0.04,-9.87,-0.05,-0.42,9.88,0.62,-0.23,0.46,0.81
-9.87,-0.16,-0.51,-9.87,-0.07,-0.44,9.88,0,-0.09,-0.07,0.11
-9.36,-1.29,-1.37,-9.76,-0.31,-0.62,9.79,0.4,-0.97,-0.74,1.29
-10.18,-1.4,-1.72,-9.85,-0.53,-0.84,9.9,-0.33,-0.87,-0.87,1.28
-9.87,-1.87,-1.21,-9.85,-0.8,-0.92,9.93,-0.02,-1.07,-0.29,1.11
-9.24,-1.87,-0.04,-9.73,-1.01,-0.74,9.81,0.49,-0.86,0.7,1.21
-10.41,-1.99,-0.66,-9.87,-1.21,-0.73,9.97,-0.55,-0.78,0.06,0.95
-11.93,-2.92,-0.74,-10.28,-1.55,-0.73,10.42,-1.65,-1.37,-0.01,2.15
-11.74,-2.73,0.08,-10.57,-1.79,-0.57,10.74,-1.17,-0.94,0.65,1.63
-11.43,-4.13,0.12,-10.74,-2.26,-0.43,10.99,-0.68,-1.88,0.55,2.07
-13.06,-4.21,0,-11.21,-2.65,-0.34,11.52,-1.86,-1.56,0.34,2.45
-11.23,-4.41,0.16,-11.21,-3,-0.24,11.61,-0.02,-1.41,0.4,1.46
-10.22,-1.83,-0.08,-11.01,-2.77,-0.21,11.36,0.8,0.93,0.13,1.23
-10.69,-0.58,0.58,-10.95,-2.33,-0.05,11.19,0.26,1.75,0.64,1.88
-10.18,0.16,0.58,-10.79,-1.83,0.08,10.95,0.62,1.99,0.51,2.14
-11.11,-0.39,-0.39,-10.86,-1.54,-0.02,10.97,-0.26,1.15,-0.37,1.24
-8.93,0.04,-1.75,-10.47,-1.23,-0.37,10.55,1.54,1.27,-1.39,2.43
-8.5,-0.23,-1.01,-10.08,-1.03,-0.49,10.14,1.58,0.79,-0.52,1.84
-12.28,0.55,-0.94,-10.52,-0.71,-0.58,10.56,-1.77,1.26,-0.35,2.2
-8.66,0.82,-2.11,-10.15,-0.41,-0.89,10.19,1.49,1.23,-1.22,2.28
-9.94,0.43,-1.52,-10.11,-0.24,-1.01,10.16,0.16,0.67,-0.51,0.85
-10.26,0.35,-1.13,-10.14,-0.12,-1.04,10.19,-0.12,0.47,-0.09,0.5
-9.71,0.23,-0.35,-10.05,-0.05,-0.9,10.09,0.34,0.28,0.55,0.71
-10.02,0.16,-2.11,-10.05,-0.01,-1.14,10.11,0.02,0.17,-0.96,0.98
-9.98,0.04,-0.23,-10.03,0,-0.96,10.08,0.05,0.04,0.73,0.73
-9.98,0.12,-2.14,-10.02,0.02,-1.2,10.09,0.04,0.09,-0.95,0.95
-9.98,0.23,-1.09,-10.02,0.07,-1.18,10.08,0.03,0.17,0.08,0.19
-9.67,0.39,-1.68,-9.95,0.13,-1.28,10.03,0.28,0.26,-0.4,0.55
-9.48,0.27,-0.47,-9.85,0.16,-1.11,9.92,0.38,0.11,0.65,0.76
-10.84,0.86,-1.87,-10.05,0.3,-1.27,10.13,-0.79,0.56,-0.61,1.14
-11.23,-1.01,-0.47,-10.29,0.04,-1.11,10.35,-0.94,-1.05,0.64,1.55
-9.24,0.9,0.16,-10.08,0.21,-0.85,10.12,0.84,0.69,1.01,1.48
-10.3,1.72,-1.48,-10.12,0.51,-0.98,10.18,-0.17,1.21,-0.5,1.32
-9.98,-0.19,0.78,-10.09,0.37,-0.63,10.12,0.11,-0.56,1.41,1.52
-11.78,0.94,-1.79,-10.43,0.48,-0.86,10.48,-1.35,0.45,-0.93,1.7
-10.37,0.27,-0.16,-10.42,0.44,-0.72,10.45,0.05,-0.17,0.56,0.59
-9.44,-0.08,-2.34,-10.22,0.34,-1.04,10.28,0.79,-0.41,-1.3,1.57
-11.62,-0.39,-0.12,-10.5,0.19,-0.86,10.54,-1.12,-0.58,0.74,1.46
-7.99,-0.31,-1.17,-10,0.09,-0.92,10.04,2.01,-0.4,-0.25,2.06
-11.74,0.86,-1.01,-10.35,0.24,-0.94,10.39,-1.39,0.61,-0.07,1.52
-8.27,0.04,1.21,-9.93,0.2,-0.51,9.95,1.66,-0.16,1.72,2.4
-10.65,0.66,-1.4,-10.08,0.3,-0.69,10.1,-0.57,0.37,-0.72,0.99
-10.06,0,-2.89,-10.07,0.24,-1.13,10.14,0.01,-0.24,-1.76,1.77
-10.49,-1.25,-1.68,-10.16,-0.06,-1.24,10.23,-0.33,-1.19,-0.44,1.31
-12.17,-0.66,-0.74,-10.56,-0.18,-1.14,10.62,-1.61,-0.48,0.4,1.73
-7.92,-1.48,-1.01,-10.03,-0.44,-1.11,10.1,2.11,-1.04,0.1,2.36
-12.83,-1.87,-1.6,-10.59,-0.73,-1.21,10.68,-2.24,-1.14,-0.39,2.55
-11.35,-1.79,-3.2,-10.74,-0.94,-1.61,10.9,-0.61,-0.85,-1.59,1.9
-8.19,-1.05,-0.9,-10.23,-0.96,-1.47,10.38,2.04,-0.09,0.57,2.12
-6.08,-0.47,-1.75,-9.4,-0.86,-1.52,9.56,3.32,0.4,-0.23,3.35
-10.06,0.66,2.42,-9.53,-0.56,-0.74,9.58,-0.53,1.22,3.15,3.42
-10.84,0.08,-0.62,-9.8,-0.43,-0.71,9.83,-1.05,0.51,0.09,1.17
-10.26,1.09,0.04,-9.89,-0.13,-0.56,9.9,-0.37,1.22,0.6,1.41
-8.62,0.16,-0.55,-9.63,-0.07,-0.56,9.65,1.02,0.23,0.01,1.04
-11.27,-0.27,2.5,-9.96,-0.11,0.05,9.96,-1.31,-0.16,2.44,2.78
-9.59,1.37,-0.74,-9.89,0.18,-0.11,9.89,0.29,1.18,-0.63,1.37
-10.88,1.05,0.16,-10.09,0.36,-0.05,10.09,-0.79,0.69,0.21,1.08
-10.18,0.23,-0.43,-10.11,0.33,-0.13,10.11,-0.07,-0.1,-0.3,0.32
-9.79,0.23,-0.31,-10.04,0.31,-0.17,10.05,0.25,-0.08,-0.15,0.3
-10.22,0.47,0.86,-10.08,0.34,0.04,10.08,-0.14,0.12,0.82,0.84
-9.44,0.35,0.62,-9.95,0.35,0.16,9.96,0.51,0.01,0.47,0.69
-11.27,0,0.43,-10.21,0.28,0.21,10.22,-1.06,-0.28,0.22,1.11
-8.54,0.47,0.35,-9.88,0.31,0.24,9.89,1.34,0.15,0.11,1.35
-11.08,0.23,0.58,-10.12,0.3,0.31,10.13,-0.96,-0.06,0.28,1
-9.98,-0.23,0.31,-10.09,0.19,0.31,10.1,0.11,-0.43,0,0.44
-9.05,-1.01,0.35,-9.88,-0.05,0.32,9.89,0.83,-0.96,0.03,1.28
-11.58,-0.9,0.43,-10.22,-0.22,0.34,10.23,-1.36,-0.68,0.09,1.52
-9.87,-2.03,1.05,-10.15,-0.58,0.48,10.18,0.28,-1.45,0.57,1.58
-9.71,-1.56,0.43,-10.06,-0.78,0.47,10.1,0.35,-0.78,-0.04,0.86
-10.06,-1.6,1.4,-10.06,-0.94,0.66,10.13,0,-0.66,0.75,0.99
-9.79,-2.11,1.05,-10.01,-1.17,0.74,10.1,0.22,-0.93,0.32,1.01
-9.87,-2.46,0.9,-9.98,-1.43,0.77,10.11,0.11,-1.03,0.13,1.04
-7.02,-0.04,1.05,-9.39,-1.15,0.83,9.49,2.37,1.11,0.23,2.63
-10.34,-1.91,0,-9.58,-1.3,0.66,9.69,-0.76,-0.61,-0.66,1.17
-10.34,-2.85,0.62,-9.73,-1.61,0.65,9.88,-0.61,-1.23,-0.03,1.38
-10.22,-1.91,0.58,-9.83,-1.67,0.64,9.99,-0.39,-0.24,-0.05,0.46
-9.59,-1.6,0.82,-9.78,-1.66,0.68,9.94,0.19,0.06,0.14,0.24
-9.98,-1.09,0,-9.82,-1.54,0.54,9.96,-0.16,0.45,-0.54,0.72
-10.02,-0.58,0.23,-9.86,-1.35,0.48,9.97,-0.16,0.77,-0.25,0.82
-10.1,-0.31,0.47,-9.91,-1.14,0.48,9.99,-0.19,0.83,-0.01,0.85
-9.87,-0.12,-0.39,-9.9,-0.94,0.3,9.95,0.03,0.82,-0.69,1.08
-10.06,0.08,-0.35,-9.93,-0.74,0.17,9.96,-0.13,0.81,-0.52,0.98
-10.14,0.51,-0.62,-9.97,-0.49,0.01,9.99,-0.17,0.99,-0.64,1.19
-10.3,0.66,-0.43,-10.04,-0.26,-0.08,10.04,-0.26,0.92,-0.35,1.02
-9.28,1.21,-1.17,-9.89,0.04,-0.29,9.89,0.61,1.17,-0.88,1.58
-10.8,0.94,-1.52,-10.07,0.22,-0.54,10.09,-0.73,0.72,-0.98,1.42
-10.02,1.13,-1.01,-10.06,0.4,-0.63,10.09,0.04,0.73,-0.38,0.83
-10.14,0.35,-1.29,-10.08,0.39,-0.76,10.11,-0.06,-0.04,-0.52,0.53
-10.41,0.66,-0.94,-10.14,0.44,-0.8,10.19,-0.27,0.22,-0.14,0.37
-8.7,0.7,-1.99,-9.85,0.5,-1.04,9.92,1.16,0.21,-0.95,1.51
-10.02,0.66,-0.51,-9.89,0.53,-0.93,9.95,-0.13,0.13,0.42,0.46
-10.02,0.9,0.58,-9.92,0.6,-0.63,9.95,-0.11,0.29,1.21,1.25
-10.49,0.66,-0.27,-10.03,0.61,-0.56,10.06,-0.46,0.05,0.28,0.54
-9.75,1.25,-0.55,-9.97,0.74,-0.55,10.02,0.22,0.51,0.01,0.55
-10.1,0.58,1.29,-10,0.71,-0.19,10.03,-0.1,-0.13,1.47,1.48
-9.4,0.78,0.31,-9.88,0.72,-0.09,9.91,0.48,0.06,0.4,0.63
-12.21,2.11,0.9,-10.35,1,0.11,10.39,-1.86,1.11,0.79,2.3
-9.52,1.33,1.37,-10.18,1.07,0.36,10.24,0.66,0.26,1,1.23
-12.64,0.43,0.9,-10.67,0.94,0.47,10.72,-1.97,-0.51,0.43,2.08
-10.37,1.95,1.52,-10.61,1.14,0.68,10.69,0.24,0.81,0.84,1.19
-11.66,2.34,2.26,-10.82,1.38,1,10.95,-0.84,0.96,1.27,1.8
-8.11,3.04,3.12,-10.28,1.71,1.42,10.52,2.17,1.33,1.7,3.06
-9.67,2.96,1.99,-10.16,1.96,1.53,10.46,0.49,1,0.45,1.2
-10.37,3.12,2.18,-10.2,2.19,1.66,10.57,-0.17,0.93,0.52,1.08
-10.41,2.92,0.98,-10.24,2.34,1.53,10.62,-0.17,0.58,-0.55,0.82
-9.98,3.04,0.66,-10.19,2.48,1.35,10.58,0.21,0.56,-0.69,0.91
-9.94,3.78,1.25,-10.14,2.74,1.33,10.59,0.2,1.04,-0.08,1.06
-10.3,3.12,1.01,-10.17,2.82,1.27,10.63,-0.12,0.3,-0.25,0.41
-11.54,3.08,1.91,-10.45,2.87,1.4,10.92,-1.1,0.21,0.51,1.23
-9.67,1.79,0.16,-10.29,2.65,1.15,10.69,0.62,-0.86,-0.99,1.45
-11.19,0.62,-0.58,-10.47,2.25,0.8,10.74,-0.72,-1.62,-1.39,2.25
-9.71,-0.27,-0.58,-10.32,1.74,0.52,10.48,0.61,-2.02,-1.11,2.38
-9.98,-0.27,-1.09,-10.25,1.34,0.2,10.34,0.27,-1.61,-1.29,2.09
-10.57,-1.6,0.35,-10.32,0.75,0.23,10.35,-0.25,-2.35,0.12,2.37
-9.59,-1.48,-0.51,-10.17,0.31,0.08,10.18,0.58,-1.79,-0.59,1.97
-10.18,-1.52,-0.12,-10.17,-0.06,0.04,10.17,-0.01,-1.46,-0.16,1.47
-9.98,-1.68,-0.08,-10.14,-0.38,0.02,10.14,0.15,-1.29,-0.1,1.31
-10.69,-1.48,-0.51,-10.25,-0.6,-0.09,10.26,-0.44,-0.88,-0.42,1.07
-9.94,-1.48,0.12,-10.19,-0.78,-0.05,10.22,0.24,-0.7,0.16,0.76
-10.26,-2.14,0.12,-10.2,-1.05,-0.01,10.25,-0.06,-1.09,0.13,1.1
-10.69,-2.34,0.78,-10.3,-1.31,0.15,10.38,-0.39,-1.03,0.63,1.27
-9.13,-1.72,0,-10.06,-1.39,0.12,10.16,0.94,-0.33,-0.12,1
-10.88,-0.31,0.39,-10.23,-1.18,0.17,10.3,-0.65,0.86,0.22,1.11
-9.63,0.16,0.74,-10.11,-0.91,0.29,10.15,0.47,1.06,0.46,1.25
-10.14,0.86,0.04,-10.11,-0.56,0.24,10.13,-0.03,1.41,-0.2,1.43
-9.94,0.78,0.08,-10.08,-0.29,0.2,10.09,0.14,1.07,-0.13,1.08
-10.22,1.09,-0.12,-10.11,-0.01,0.14,10.11,-0.11,1.1,-0.26,1.14
-10.49,1.4,-0.19,-10.18,0.27,0.07,10.19,-0.31,1.13,-0.27,1.2
-9.67,1.68,-0.7,-10.08,0.55,-0.08,10.1,0.41,1.12,-0.62,1.35
-9.94,2.26,-1.17,-10.05,0.89,-0.3,10.1,0.11,1.37,-0.87,1.63
-7.06,2.85,-0.08,-9.46,1.28,-0.26,9.55,2.4,1.56,0.18,2.87
-10.14,2.18,0.08,-9.59,1.46,-0.19,9.71,-0.55,0.72,0.27,0.94
-9.79,2.26,0,-9.63,1.62,-0.15,9.77,-0.16,0.64,0.15,0.67
-10.02,2.07,0,-9.71,1.71,-0.12,9.86,-0.31,0.35,0.12,0.49
-10.1,2.85,0.58,-9.79,1.94,0.02,9.98,-0.31,0.91,0.56,1.11
-9.98,2.14,-0.04,-9.83,1.98,0.01,10.02,-0.16,0.16,-0.05,0.23
-9.24,2.42,0,-9.71,2.07,0.01,9.93,0.47,0.35,-0.01,0.58
-10.8,2.3,-0.55,-9.93,2.11,-0.1,10.15,-0.87,0.19,-0.44,1
-10.06,1.13,-0.7,-9.96,1.92,-0.22,10.14,-0.11,-0.79,-0.48,0.93
-9.91,1.64,0.08,-9.95,1.86,-0.16,10.12,0.04,-0.22,0.24,0.33
-8.89,1.56,-0.74,-9.73,1.8,-0.28,9.9,0.84,-0.24,-0.46,0.99
-10.84,0.86,-2.07,-9.96,1.61,-0.64,10.11,-0.89,-0.75,-1.43,1.84
-10.06,0.51,-0.51,-9.98,1.39,-0.61,10.09,-0.08,-0.88,0.1,0.89
-8.97,0.19,-1.13,-9.78,1.15,-0.71,9.87,0.81,-0.96,-0.42,1.32
-10.88,-0.23,-1.01,-10,0.88,-0.77,10.07,-0.88,-1.11,-0.24,1.44
-9.59,-0.27,-0.62,-9.92,0.65,-0.74,9.97,0.32,-0.92,0.12,0.98
-9.98,-0.08,-0.94,-9.93,0.5,-0.78,9.97,-0.05,-0.58,-0.15,0.6
-9.13,0.23,-2.14,-9.77,0.45,-1.06,9.84,0.64,-0.21,-1.09,1.28
-9.91,0.08,-1.37,-9.8,0.37,-1.12,9.87,-0.11,-0.3,-0.25,0.4
-10.61,-1.29,1.48,-9.96,0.04,-0.6,9.98,-0.65,-1.33,2.08,2.55
-10.88,0.35,0.08,-10.14,0.1,-0.46,10.15,-0.74,0.25,0.54,0.95
-10.34,-0.04,0.43,-10.18,0.07,-0.28,10.19,-0.15,-0.11,0.71,0.74
-7.57,0.9,-0.58,-9.66,0.24,-0.34,9.67,2.09,0.66,-0.24,2.21
-9.48,0.12,-0.19,-9.62,0.21,-0.31,9.63,0.15,-0.1,0.12,0.21
-10.73,0.51,-0.19,-9.84,0.27,-0.29,9.85,-0.88,0.23,0.1,0.92
-8.77,-0.12,1.6,-9.63,0.2,0.09,9.63,0.85,-0.31,1.51,1.76
-11.27,0.31,1.01,-9.96,0.22,0.27,9.96,-1.31,0.09,0.74,1.51
-9.28,0.08,0.98,-9.82,0.19,0.41,9.83,0.54,-0.11,0.56,0.79
-10.3,0.39,0.9,-9.92,0.23,0.51,9.93,-0.38,0.16,0.39,0.56
-9.48,0.08,1.64,-9.83,0.2,0.74,9.86,0.35,-0.12,0.9,0.98
-10.61,0.51,2.65,-9.98,0.26,1.12,10.05,-0.62,0.25,1.53,1.67
-9.59,0.23,3,-9.91,0.26,1.5,10.02,0.31,-0.02,1.51,1.54
-10.65,-0.04,2.42,-10.05,0.2,1.68,10.2,-0.59,-0.24,0.74,0.98
-9.87,0.27,2.54,-10.02,0.21,1.85,10.19,0.15,0.06,0.68,0.7
-9.44,0.31,2.18,-9.9,0.23,1.92,10.09,0.46,0.08,0.27,0.54
-10.57,0.27,0.86,-10.03,0.24,1.71,10.18,-0.53,0.03,-0.85,1
-10.02,0.12,0.43,-10.03,0.22,1.45,10.14,0.01,-0.1,-1.02,1.03
-10.1,0.23,0.47,-10.05,0.22,1.25,10.13,-0.05,0.01,-0.79,0.79
-10.8,0.43,-0.94,-10.2,0.26,0.82,10.23,-0.61,0.17,-1.75,1.86
-10.02,0.19,-0.86,-10.16,0.25,0.48,10.18,0.14,-0.05,-1.34,1.35
-10.02,0.12,0,-10.13,0.22,0.38,10.14,0.11,-0.1,-0.38,0.41
-10.22,0.04,0.04,-10.15,0.19,0.32,10.16,-0.07,-0.15,-0.28,0.32
-9.98,0.31,-0.23,-10.12,0.21,0.21,10.12,0.13,0.1,-0.44,0.47
-10.06,0.19,-0.43,-10.11,0.21,0.08,10.11,0.04,-0.01,-0.51,0.51
-9.98,0.23,0,-10.08,0.21,0.06,10.08,0.1,0.02,-0.06,0.12
-9.91,0.27,-0.12,-10.05,0.22,0.03,10.05,0.14,0.05,-0.14,0.21
-10.02,0.39,-0.7,-10.04,0.26,-0.12,10.05,0.02,0.13,-0.58,0.6
-9.98,0.12,0.16,-10.03,0.23,-0.06,10.03,0.05,-0.11,0.22,0.25
-10.02,0.58,-0.39,-10.03,0.3,-0.13,10.03,0.01,0.28,-0.26,0.39
-10.1,0.39,-0.82,-10.04,0.32,-0.27,10.05,-0.06,0.07,-0.55,0.56
-10.26,0.16,-0.43,-10.09,0.29,-0.3,10.09,-0.17,-0.13,-0.13,0.25
-10.1,0.12,0.16,-10.09,0.25,-0.21,10.09,-0.01,-0.14,0.36,0.39
-10.02,0.31,-0.27,-10.08,0.26,-0.22,10.08,0.05,0.05,-0.05,0.09
-10.02,0.31,-0.82,-10.07,0.27,-0.34,10.07,0.04,0.04,-0.48,0.48
-10.26,0.08,-0.27,-10.1,0.23,-0.33,10.11,-0.15,-0.16,0.05,0.23
-9.91,0.12,0.23,-10.06,0.21,-0.22,10.07,0.16,-0.09,0.45,0.49
-10.1,0.12,-0.47,-10.07,0.19,-0.27,10.08,-0.03,-0.08,-0.2,0.22
-10.26,0.04,0.23,-10.11,0.16,-0.17,10.11,-0.15,-0.12,0.4,0.44
-9.98,0,0.12,-10.08,0.13,-0.11,10.09,0.1,-0.13,0.23,0.28
-9.87,0.39,-0.39,-10.04,0.18,-0.17,10.04,0.17,0.21,-0.22,0.35
-10.14,0.27,-0.55,-10.06,0.2,-0.24,10.07,-0.08,0.07,-0.3,0.32
-10.02,0.19,0.04,-10.05,0.2,-0.19,10.06,0.03,0,0.22,0.23
-10.26,0.08,-0.08,-10.09,0.17,-0.16,10.1,-0.16,-0.1,0.09,0.21
-9.83,0.16,0.08,-10.04,0.17,-0.12,10.04,0.21,-0.01,0.19,0.29
-9.91,0.35,-0.23,-10.01,0.21,-0.14,10.02,0.11,0.14,-0.09,0.2
-10.06,0.31,-0.86,-10.02,0.23,-0.28,10.03,-0.04,0.08,-0.58,0.58
-9.87,0.08,0.12,-9.99,0.2,-0.2,10,0.13,-0.12,0.32,0.36
-9.98,0.43,-0.27,-9.99,0.24,-0.22,10,0.01,0.18,-0.06,0.19
-10.14,0.12,0.16,-10.02,0.22,-0.14,10.02,-0.12,-0.1,0.3,0.34
-9.91,0.27,-0.12,-10,0.23,-0.14,10,0.09,0.04,0.02,0.1
-10.14,0.39,-0.9,-10.03,0.26,-0.29,10.03,-0.11,0.13,-0.61,0.63
-9.94,0.16,0,-10.01,0.24,-0.23,10.02,0.06,-0.08,0.23,0.25
-9.87,0.31,-0.31,-9.98,0.25,-0.25,9.99,0.11,0.06,-0.06,0.14
-10.45,0.12,-1.05,-10.08,0.23,-0.41,10.09,-0.38,-0.11,-0.64,0.75
-9.91,0.23,-0.94,-10.04,0.23,-0.51,10.06,0.14,0.01,-0.42,0.44
-10.1,0.04,-0.43,-10.05,0.19,-0.5,10.07,-0.05,-0.15,0.07,0.17
-10.22,0.31,-0.86,-10.09,0.21,-0.57,10.1,-0.13,0.1,-0.29,0.33
-10.06,0.16,-0.7,-10.08,0.2,-0.6,10.1,0.02,-0.05,-0.11,0.12
-10.06,0.47,-1.13,-10.08,0.26,-0.7,10.11,0.02,0.21,-0.43,0.48
-9.87,0.43,-1.64,-10.04,0.29,-0.89,10.08,0.17,0.14,-0.75,0.78
-10.14,0.43,-1.44,-10.06,0.32,-1,10.11,-0.08,0.11,-0.44,0.46
-10.06,0.23,-2.34,-10.06,0.3,-1.27,10.14,0,-0.07,-1.07,1.07
-10.14,0.19,-1.48,-10.07,0.28,-1.31,10.16,-0.07,-0.09,-0.17,0.2
-10.34,0.74,-1.33,-10.13,0.37,-1.31,10.22,-0.21,0.37,-0.01,0.42
-10.22,0.82,-0.78,-10.14,0.46,-1.21,10.23,-0.07,0.36,0.43,0.56
-9.83,0.23,-1.17,-10.08,0.42,-1.2,10.16,0.25,-0.18,0.03,0.31
-10.45,0.35,-1.37,-10.16,0.4,-1.23,10.24,-0.3,-0.05,-0.13,0.33
-9.4,0.86,-1.48,-10,0.49,-1.28,10.1,0.61,0.36,-0.2,0.73
-10.49,1.01,-0.74,-10.1,0.6,-1.17,10.19,-0.39,0.42,0.43,0.72
-9.79,1.09,-0.94,-10.04,0.7,-1.13,10.13,0.25,0.4,0.19,0.5
-11.27,1.21,-1.09,-10.29,0.8,-1.12,10.38,-0.99,0.41,0.03,1.07
-9.09,1.25,-1.09,-10.05,0.89,-1.11,10.15,0.96,0.36,0.02,1.02
-10.61,2.03,-1.01,-10.16,1.12,-1.09,10.28,-0.45,0.91,0.08,1.02
-9.56,1.83,-0.35,-10.04,1.26,-0.95,10.16,0.48,0.57,0.59,0.96
-8.81,1.64,-1.09,-9.79,1.34,-0.97,9.93,0.98,0.3,-0.12,1.03
